"Time (s)","Acceleration x (m/s^2)","Acceleration y (m/s^2)","Acceleration z (m/s^2)"
0.000000000E0,1.013095379E0,8.729603767E0,4.654838562E0
2.000625000E-3,1.017886400E0,8.710439682E0,4.674002171E0
4.001823000E-3,9.843496680E-1,8.710439682E0,4.678793430E0
6.003802000E-3,9.747677445E-1,8.672111511E0,4.674002171E0
8.006667000E-3,9.603948593E-1,8.662529945E0,4.693166256E0
1.001052100E-2,9.172762632E-1,8.662529945E0,4.697957039E0
1.201541700E-2,8.645757437E-1,8.633784294E0,4.669211388E0
1.402135400E-2,8.406209350E-1,8.619411469E0,4.683584213E0
1.602828100E-2,7.879204154E-1,8.600247383E0,4.674002171E0
1.803609400E-2,7.352198958E-1,8.600247383E0,4.654838562E0
2.004651100E-2,6.873103380E-1,8.595456123E0,4.640465736E0
2.205697900E-2,6.585645676E-1,8.600247383E0,4.611720085E0
2.406744800E-2,6.346098185E-1,8.614620209E0,4.568601131E0
2.607817700E-2,6.585645676E-1,8.605038643E0,4.568601131E0
2.808895900E-2,6.537736058E-1,8.600247383E0,4.511109829E0
3.009692700E-2,6.873103380E-1,8.614620209E0,4.520691872E0
3.210276100E-2,6.825193763E-1,8.633784294E0,4.525482655E0
3.410859400E-2,6.921012998E-1,8.628993034E0,4.535064697E0
3.611442700E-2,7.208470106E-1,8.628993034E0,4.530273914E0
3.812031300E-2,6.968922615E-1,8.609828949E0,4.535064697E0
4.012625000E-2,7.016831636E-1,8.600247383E0,4.559019566E0
4.213224000E-2,7.256379724E-1,8.605038643E0,4.573392391E0
4.413822900E-2,7.064741254E-1,8.590665817E0,4.568601131E0
4.614349000E-2,7.016831636E-1,8.581083298E0,4.568601131E0
4.814791700E-2,7.256379724E-1,8.566710472E0,4.582974434E0
5.015234400E-2,7.304289341E-1,8.571501732E0,4.587765217E0
5.215677100E-2,7.256379724E-1,8.609828949E0,4.573392391E0
5.416119800E-2,7.400108576E-1,8.614620209E0,4.563810349E0
5.616562500E-2,7.208470106E-1,8.609828949E0,4.549437523E0
5.817005200E-2,7.256379724E-1,8.619411469E0,4.515900612E0
6.017447900E-2,7.448018193E-1,8.624202728E0,4.520691872E0
6.217890600E-2,7.400108576E-1,8.619411469E0,4.501527786E0
6.418333400E-2,7.304289341E-1,8.628993034E0,4.482364178E0
6.618776100E-2,7.495927811E-1,8.643365860E0,4.491946220E0
6.819218800E-2,7.400108576E-1,8.638575554E0,4.501527786E0
7.019661500E-2,7.112650871E-1,8.657738686E0,4.501527786E0
7.220104200E-2,7.208470106E-1,8.643365860E0,4.491946220E0
7.420546900E-2,7.160560489E-1,8.652948380E0,4.511109829E0
7.620989600E-2,7.112650871E-1,8.667321205E0,4.530273914E0
7.821432300E-2,7.256379724E-1,8.643365860E0,4.544646740E0
8.021875000E-2,7.064741254E-1,8.657738686E0,4.549437523E0
8.222317700E-2,7.064741254E-1,8.672111511E0,4.559019566E0
8.422760400E-2,7.448018193E-1,8.676902771E0,4.568601131E0
8.623203100E-2,7.495927811E-1,8.696066856E0,4.568601131E0
8.823645900E-2,7.591747046E-1,8.729603767E0,4.573392391E0
9.024093800E-2,7.831294537E-1,8.748766899E0,4.563810349E0
9.224541700E-2,8.022933006E-1,8.791885376E0,4.559019566E0
9.424989600E-2,8.166661859E-1,8.791885376E0,4.578183174E0
9.625437500E-2,8.358299732E-1,8.806258202E0,4.559019566E0
9.825885400E-2,8.214571476E-1,8.806258202E0,4.582974434E0
1.002633860E-1,8.406209350E-1,8.825422287E0,4.597347260E0
1.022679170E-1,8.358299732E-1,8.815840721E0,4.597347260E0
1.042724480E-1,8.502028584E-1,8.815840721E0,4.597347260E0
1.062769790E-1,8.502028584E-1,8.811049461E0,4.602138042E0
1.082815110E-1,8.549938202E-1,8.820631981E0,4.602138042E0
1.102860420E-1,8.406209350E-1,8.787095070E0,4.630883694E0
1.122905730E-1,8.406209350E-1,8.767930984E0,4.621301651E0
1.142951040E-1,8.358299732E-1,8.748766899E0,4.616510868E0
1.162996360E-1,8.262480497E-1,8.748766899E0,4.621301651E0
1.183041670E-1,8.118752241E-1,8.739185333E0,4.630883694E0
1.203086980E-1,8.022933006E-1,8.715229988E0,4.621301651E0
1.223132290E-1,8.070842624E-1,8.700857162E0,4.630883694E0
1.243177610E-1,7.927113771E-1,8.720021248E0,4.616510868E0
1.263222920E-1,7.927113771E-1,8.705648422E0,4.635674953E0
1.283268230E-1,7.927113771E-1,8.715229988E0,4.621301651E0
1.303313540E-1,7.927113771E-1,8.724812508E0,4.616510868E0
1.323358860E-1,7.831294537E-1,8.705648422E0,4.621301651E0
1.343404170E-1,7.975023389E-1,8.720021248E0,4.621301651E0
1.363449480E-1,8.166661859E-1,8.724812508E0,4.611720085E0
1.383494790E-1,8.166661859E-1,8.739185333E0,4.606928825E0
1.403540110E-1,8.502028584E-1,8.763139725E0,4.597347260E0
1.423585420E-1,8.502028584E-1,8.753558159E0,4.578183174E0
1.443630730E-1,8.693667054E-1,8.763139725E0,4.573392391E0
1.463676040E-1,8.789486289E-1,8.753558159E0,4.549437523E0
1.483721360E-1,8.933214545E-1,8.767930984E0,4.539855480E0
1.503766670E-1,9.268581867E-1,8.763139725E0,4.544646740E0
1.523811980E-1,9.508129358E-1,8.767930984E0,4.535064697E0
1.543857290E-1,9.508129358E-1,8.743976593E0,4.525482655E0
1.563902610E-1,9.747677445E-1,8.739185333E0,4.520691872E0
1.583947920E-1,9.891406298E-1,8.720021248E0,4.511109829E0
1.603992710E-1,9.987225533E-1,8.729603767E0,4.525482655E0
1.624037500E-1,1.008304477E0,8.734394073E0,4.496737003E0
1.644082290E-1,1.008304477E0,8.720021248E0,4.496737003E0
1.664127090E-1,1.046632171E0,8.705648422E0,4.515900612E0
1.684171880E-1,1.022677302E0,8.691275597E0,4.520691872E0
1.704216670E-1,1.056213975E0,8.686484337E0,4.506319046E0
1.724261460E-1,1.046632171E0,8.681694031E0,4.520691872E0
1.744306250E-1,1.065795898E0,8.681694031E0,4.511109829E0
1.764351040E-1,1.061004996E0,8.672111511E0,4.501527786E0
1.784395840E-1,1.070586920E0,8.643365860E0,4.511109829E0
1.804440630E-1,1.056213975E0,8.652948380E0,4.511109829E0
1.824485420E-1,1.061004996E0,8.628993034E0,4.515900612E0
1.844530210E-1,1.046632171E0,8.619411469E0,4.530273914E0
1.864575000E-1,1.041841149E0,8.638575554E0,4.544646740E0
1.884619790E-1,1.027468324E0,8.633784294E0,4.520691872E0
1.904664590E-1,9.891406298E-1,8.643365860E0,4.539855480E0
1.924709380E-1,9.843496680E-1,8.624202728E0,4.544646740E0
1.944754170E-1,9.939315915E-1,8.624202728E0,4.539855480E0
1.964798960E-1,9.987225533E-1,8.624202728E0,4.554228306E0
1.984843750E-1,9.843496680E-1,8.633784294E0,4.559019566E0
2.004888540E-1,9.939315915E-1,8.638575554E0,4.554228306E0
2.024933340E-1,9.699767828E-1,8.657738686E0,4.563810349E0
2.044978130E-1,9.699767828E-1,8.648157120E0,4.568601131E0
2.065022920E-1,9.556038976E-1,8.643365860E0,4.563810349E0
2.085067710E-1,9.603948593E-1,8.643365860E0,4.568601131E0
2.105112500E-1,9.508129358E-1,8.657738686E0,4.587765217E0
2.125157290E-1,9.556038976E-1,8.657738686E0,4.597347260E0
2.145202090E-1,9.268581867E-1,8.662529945E0,4.582974434E0
2.165246880E-1,9.316491485E-1,8.643365860E0,4.587765217E0
2.185291670E-1,9.316491485E-1,8.657738686E0,4.611720085E0
2.205336460E-1,9.220672250E-1,8.643365860E0,4.621301651E0
2.225381250E-1,9.124853015E-1,8.648157120E0,4.611720085E0
2.245426040E-1,9.029033780E-1,8.638575554E0,4.626092911E0
2.265470840E-1,9.172762632E-1,8.643365860E0,4.630883694E0
2.285515630E-1,9.172762632E-1,8.638575554E0,4.630883694E0
2.305560420E-1,9.124853015E-1,8.648157120E0,4.621301651E0
2.325605210E-1,9.268581867E-1,8.648157120E0,4.616510868E0
2.345650000E-1,9.508129358E-1,8.648157120E0,4.611720085E0
2.365694790E-1,9.460219741E-1,8.657738686E0,4.616510868E0
2.385739590E-1,9.651858211E-1,8.648157120E0,4.616510868E0
2.405784380E-1,9.603948593E-1,8.657738686E0,4.621301651E0
2.425829170E-1,9.747677445E-1,8.662529945E0,4.621301651E0
2.445873960E-1,9.699767828E-1,8.662529945E0,4.606928825E0
2.465918750E-1,9.939315915E-1,8.667321205E0,4.587765217E0
2.485963540E-1,9.987225533E-1,8.672111511E0,4.592556000E0
2.506008340E-1,9.939315915E-1,8.681694031E0,4.582974434E0
2.526053130E-1,1.003513575E0,8.700857162E0,4.578183174E0
2.546097920E-1,9.987225533E-1,8.710439682E0,4.568601131E0
2.566142710E-1,1.032259226E0,8.715229988E0,4.530273914E0
2.586187500E-1,1.022677302E0,8.700857162E0,4.525482655E0
2.606232290E-1,1.041841149E0,8.715229988E0,4.515900612E0
2.626277090E-1,1.046632171E0,8.710439682E0,4.525482655E0
2.646321880E-1,1.051423073E0,8.734394073E0,4.525482655E0
2.666366670E-1,1.080168843E0,8.705648422E0,4.515900612E0
2.686411460E-1,1.084959745E0,8.720021248E0,4.501527786E0
2.706456250E-1,1.075377822E0,8.720021248E0,4.491946220E0
2.726501040E-1,1.080168843E0,8.710439682E0,4.501527786E0
2.746545840E-1,1.104123592E0,8.700857162E0,4.472782135E0
2.766590630E-1,1.108914495E0,8.715229988E0,4.487154961E0
2.786635420E-1,1.113705516E0,8.696066856E0,4.487154961E0
2.806680210E-1,1.094541669E0,8.696066856E0,4.472782135E0
2.826725000E-1,1.108914495E0,8.676902771E0,4.482364178E0
2.846769790E-1,1.089750767E0,8.686484337E0,4.491946220E0
2.866814590E-1,1.099332571E0,8.676902771E0,4.501527786E0
2.886859380E-1,1.104123592E0,8.657738686E0,4.511109829E0
2.906904170E-1,1.065795898E0,8.657738686E0,4.501527786E0
2.926948960E-1,1.065795898E0,8.657738686E0,4.496737003E0
2.946993750E-1,1.046632171E0,8.652948380E0,4.506319046E0
2.967038540E-1,1.041841149E0,8.643365860E0,4.501527786E0
2.987083340E-1,1.032259226E0,8.643365860E0,4.496737003E0
3.007128130E-1,1.022677302E0,8.648157120E0,4.501527786E0
3.027172920E-1,1.013095379E0,8.652948380E0,4.491946220E0
3.047217710E-1,1.008304477E0,8.624202728E0,4.496737003E0
3.067262500E-1,9.891406298E-1,8.619411469E0,4.496737003E0
3.087307290E-1,9.651858211E-1,8.614620209E0,4.482364178E0
3.107352090E-1,9.795587063E-1,8.605038643E0,4.477573395E0
3.127396880E-1,9.508129358E-1,8.600247383E0,4.491946220E0
3.147441670E-1,9.364401102E-1,8.585874557E0,4.487154961E0
3.167486460E-1,9.364401102E-1,8.571501732E0,4.501527786E0
3.187531250E-1,9.220672250E-1,8.557128906E0,4.530273914E0
3.207576040E-1,9.172762632E-1,8.571501732E0,4.515900612E0
3.227620840E-1,9.268581867E-1,8.557128906E0,4.520691872E0
3.247665630E-1,9.172762632E-1,8.561920166E0,4.530273914E0
3.267710420E-1,9.172762632E-1,8.566710472E0,4.530273914E0
3.287755210E-1,9.220672250E-1,8.576292992E0,4.539855480E0
3.307800000E-1,9.412310719E-1,8.585874557E0,4.549437523E0
3.327844790E-1,9.460219741E-1,8.595456123E0,4.520691872E0
3.347889590E-1,9.508129358E-1,8.614620209E0,4.559019566E0
3.367934380E-1,9.699767828E-1,8.652948380E0,4.525482655E0
3.387979170E-1,9.795587063E-1,8.667321205E0,4.544646740E0
3.408023960E-1,9.939315915E-1,8.667321205E0,4.539855480E0
3.428068750E-1,9.987225533E-1,8.681694031E0,4.539855480E0
3.448113540E-1,1.017886400E0,8.700857162E0,4.539855480E0
3.468158340E-1,1.017886400E0,8.720021248E0,4.554228306E0
3.488203130E-1,1.046632171E0,8.720021248E0,4.559019566E0
3.508247920E-1,1.046632171E0,8.739185333E0,4.559019566E0
3.528292710E-1,1.051423073E0,8.758349419E0,4.544646740E0
3.548337500E-1,1.051423073E0,8.753558159E0,4.563810349E0
3.568382290E-1,1.051423073E0,8.763139725E0,4.563810349E0
3.588427090E-1,1.051423073E0,8.777512550E0,4.549437523E0
3.608471880E-1,1.080168843E0,8.806258202E0,4.539855480E0
3.628516670E-1,1.099332571E0,8.815840721E0,4.539855480E0
3.648561460E-1,1.104123592E0,8.806258202E0,4.539855480E0
3.668606250E-1,1.089750767E0,8.815840721E0,4.539855480E0
3.688651040E-1,1.104123592E0,8.835004807E0,4.520691872E0
3.708695840E-1,1.099332571E0,8.820631981E0,4.535064697E0
3.728740630E-1,1.094541669E0,8.825422287E0,4.539855480E0
3.748785420E-1,1.094541669E0,8.820631981E0,4.535064697E0
3.768830210E-1,1.084959745E0,8.830213547E0,4.525482655E0
3.788875000E-1,1.080168843E0,8.815840721E0,4.549437523E0
3.808919790E-1,1.070586920E0,8.791885376E0,4.554228306E0
3.828964590E-1,1.037050247E0,8.791885376E0,4.554228306E0
3.849009380E-1,9.987225533E-1,8.782303810E0,4.563810349E0
3.869054170E-1,9.843496680E-1,8.758349419E0,4.549437523E0
3.889098960E-1,9.220672250E-1,8.739185333E0,4.539855480E0
3.909143750E-1,9.124853015E-1,8.724812508E0,4.520691872E0
3.929188540E-1,8.693667054E-1,8.715229988E0,4.535064697E0
3.949233340E-1,8.454118967E-1,8.681694031E0,4.535064697E0
3.969278130E-1,8.214571476E-1,8.672111511E0,4.559019566E0
3.989322920E-1,7.927113771E-1,8.662529945E0,4.559019566E0
4.009367710E-1,7.975023389E-1,8.643365860E0,4.578183174E0
4.029412500E-1,7.831294537E-1,8.633784294E0,4.592556000E0
4.049457290E-1,8.022933006E-1,8.614620209E0,4.578183174E0
4.069502090E-1,7.927113771E-1,8.614620209E0,4.592556000E0
4.089546880E-1,7.687565684E-1,8.600247383E0,4.582974434E0
4.109591670E-1,7.831294537E-1,8.609828949E0,4.602138042E0
4.129636460E-1,7.831294537E-1,8.590665817E0,4.606928825E0
4.149681250E-1,7.735475302E-1,8.585874557E0,4.597347260E0
4.169726040E-1,8.118752241E-1,8.590665817E0,4.602138042E0
4.189771360E-1,8.166661859E-1,8.581083298E0,4.616510868E0
4.209816670E-1,8.358299732E-1,8.590665817E0,4.616510868E0
4.229861980E-1,8.741576672E-1,8.605038643E0,4.606928825E0
4.249907290E-1,8.837395310E-1,8.581083298E0,4.602138042E0
4.269952610E-1,9.124853015E-1,8.585874557E0,4.606928825E0
4.289997920E-1,9.508129358E-1,8.585874557E0,4.616510868E0
4.310043230E-1,9.603948593E-1,8.590665817E0,4.602138042E0
4.330088540E-1,1.013095379E0,8.561920166E0,4.606928825E0
4.350133860E-1,1.013095379E0,8.576292992E0,4.602138042E0
4.370179170E-1,1.037050247E0,8.557128906E0,4.592556000E0
4.390224480E-1,1.061004996E0,8.552337646E0,4.621301651E0
4.410269790E-1,1.075377822E0,8.552337646E0,4.602138042E0
4.430315110E-1,1.065795898E0,8.566710472E0,4.582974434E0
4.450360420E-1,1.080168843E0,8.576292992E0,4.578183174E0
4.470405730E-1,1.089750767E0,8.590665817E0,4.582974434E0
4.490451040E-1,1.099332571E0,8.576292992E0,4.568601131E0
4.510496360E-1,1.084959745E0,8.600247383E0,4.559019566E0
4.530541670E-1,1.089750767E0,8.600247383E0,4.563810349E0
4.550586980E-1,1.080168843E0,8.619411469E0,4.573392391E0
4.570632290E-1,1.061004996E0,8.633784294E0,4.563810349E0
4.590677610E-1,1.046632171E0,8.662529945E0,4.554228306E0
4.610722920E-1,1.046632171E0,8.657738686E0,4.559019566E0
4.630768230E-1,1.041841149E0,8.667321205E0,4.563810349E0
4.650813540E-1,1.008304477E0,8.686484337E0,4.568601131E0
4.670858860E-1,1.013095379E0,8.691275597E0,4.568601131E0
4.690904170E-1,1.008304477E0,8.691275597E0,4.573392391E0
4.710949480E-1,9.939315915E-1,8.715229988E0,4.559019566E0
4.730994790E-1,9.939315915E-1,8.715229988E0,4.563810349E0
4.751040110E-1,9.651858211E-1,8.724812508E0,4.544646740E0
4.771085420E-1,9.747677445E-1,8.729603767E0,4.544646740E0
4.791130210E-1,9.412310719E-1,8.753558159E0,4.544646740E0
4.811175000E-1,9.268581867E-1,8.767930984E0,4.535064697E0
4.831219790E-1,9.124853015E-1,8.763139725E0,4.549437523E0
4.851264590E-1,9.029033780E-1,8.753558159E0,4.535064697E0
4.871309380E-1,8.981124163E-1,8.753558159E0,4.549437523E0
4.891354170E-1,8.693667054E-1,8.753558159E0,4.520691872E0
4.911398960E-1,8.406209350E-1,8.748766899E0,4.515900612E0
4.931443750E-1,8.166661859E-1,8.729603767E0,4.535064697E0
4.951488540E-1,7.879204154E-1,8.734394073E0,4.549437523E0
4.971533340E-1,7.543837428E-1,8.715229988E0,4.535064697E0
4.991578130E-1,7.256379724E-1,8.724812508E0,4.501527786E0
5.011622920E-1,7.064741254E-1,8.667321205E0,4.539855480E0
5.031667710E-1,6.729374528E-1,8.667321205E0,4.525482655E0
5.051712500E-1,6.489826441E-1,8.648157120E0,4.539855480E0
5.071757290E-1,6.154459715E-1,8.624202728E0,4.539855480E0
5.091802090E-1,5.723273754E-1,8.600247383E0,4.535064697E0
5.111846880E-1,5.675364137E-1,8.614620209E0,4.559019566E0
5.131891670E-1,5.387906432E-1,8.595456123E0,4.559019566E0
5.151936460E-1,4.956720471E-1,8.600247383E0,4.549437523E0
5.171981250E-1,4.908810854E-1,8.595456123E0,4.544646740E0
5.192026040E-1,4.573444128E-1,8.585874557E0,4.535064697E0
5.212070840E-1,4.285986423E-1,8.590665817E0,4.530273914E0
5.232115630E-1,4.381805658E-1,8.600247383E0,4.525482655E0
5.252160420E-1,4.238076806E-1,8.600247383E0,4.506319046E0
5.272205210E-1,4.190167189E-1,8.581083298E0,4.539855480E0
5.292250000E-1,4.333896041E-1,8.595456123E0,4.539855480E0
5.312294790E-1,4.429715276E-1,8.566710472E0,4.592556000E0
5.332339590E-1,4.429715276E-1,8.561920166E0,4.602138042E0
5.352384380E-1,4.573444128E-1,8.585874557E0,4.592556000E0
5.372429170E-1,4.717172384E-1,8.571501732E0,4.563810349E0
5.392473960E-1,5.148358941E-1,8.566710472E0,4.544646740E0
5.412518750E-1,5.579544902E-1,8.547547340E0,4.530273914E0
5.432563540E-1,5.819092393E-1,8.561920166E0,4.487154961E0
5.452608340E-1,6.441916823E-1,8.547547340E0,4.506319046E0
5.472653130E-1,6.921012998E-1,8.518801689E0,4.568601131E0
5.492697920E-1,7.352198958E-1,8.547547340E0,4.559019566E0
5.512742710E-1,7.735475302E-1,8.533174515E0,4.549437523E0
5.532787500E-1,8.118752241E-1,8.533174515E0,4.525482655E0
5.552832290E-1,8.502028584E-1,8.542756081E0,4.549437523E0
5.572877090E-1,8.741576672E-1,8.557128906E0,4.554228306E0
5.592921880E-1,9.172762632E-1,8.514010429E0,4.563810349E0
5.612966670E-1,9.508129358E-1,8.537964821E0,4.573392391E0
5.633011460E-1,9.747677445E-1,8.547547340E0,4.549437523E0
5.653056250E-1,1.051423073E0,8.547547340E0,4.544646740E0
5.673101040E-1,1.080168843E0,8.542756081E0,4.578183174E0
5.693145840E-1,1.089750767E0,8.561920166E0,4.582974434E0
5.713190630E-1,1.108914495E0,8.576292992E0,4.578183174E0
5.733235420E-1,1.152033210E0,8.600247383E0,4.563810349E0
5.753280210E-1,1.156824112E0,8.600247383E0,4.592556000E0
5.773325000E-1,1.185569882E0,8.619411469E0,4.539855480E0
5.793369790E-1,1.214315653E0,8.624202728E0,4.549437523E0
5.813414590E-1,1.209524632E0,8.633784294E0,4.568601131E0
5.833459380E-1,1.219106555E0,8.652948380E0,4.568601131E0
5.853504170E-1,1.247852325E0,8.681694031E0,4.563810349E0
5.873548960E-1,1.271807075E0,8.681694031E0,4.559019566E0
5.893593750E-1,1.300552845E0,8.686484337E0,4.587765217E0
5.913638540E-1,1.305343747E0,8.700857162E0,4.563810349E0
5.933683340E-1,1.319716692E0,8.700857162E0,4.578183174E0
5.953728130E-1,1.334089518E0,8.715229988E0,4.563810349E0
5.973772920E-1,1.343671441E0,8.715229988E0,4.573392391E0
5.993817710E-1,1.386790037E0,8.710439682E0,4.573392391E0
6.013862500E-1,1.386790037E0,8.700857162E0,4.563810349E0
6.033907290E-1,1.405953884E0,8.715229988E0,4.559019566E0
6.053952090E-1,1.425117731E0,8.691275597E0,4.582974434E0
6.073996880E-1,1.420326710E0,8.705648422E0,4.578183174E0
6.094041670E-1,1.449072480E0,8.686484337E0,4.592556000E0
6.114086460E-1,1.453863502E0,8.648157120E0,4.573392391E0
6.134131250E-1,1.477818251E0,8.643365860E0,4.573392391E0
6.154176040E-1,1.449072480E0,8.648157120E0,4.559019566E0
6.174220840E-1,1.449072480E0,8.638575554E0,4.573392391E0
6.194265630E-1,1.449072480E0,8.628993034E0,4.554228306E0
6.214310420E-1,1.468236327E0,8.619411469E0,4.578183174E0
6.234355210E-1,1.444281578E0,8.600247383E0,4.602138042E0
6.254400000E-1,1.468236327E0,8.590665817E0,4.602138042E0
6.274444790E-1,1.487400174E0,8.571501732E0,4.616510868E0
6.294489590E-1,1.578428388E0,8.485264778E0,4.870431423E0
6.314534380E-1,1.597592115E0,8.442146301E0,4.846477032E0
6.334579170E-1,1.516145945E0,8.475682259E0,4.678793430E0
6.354623960E-1,1.482609153E0,8.442146301E0,4.693166256E0
6.374668750E-1,1.329298615E0,8.475682259E0,4.463200092E0
6.394713540E-1,1.281388998E0,8.533174515E0,4.424872398E0
6.414758340E-1,1.209524632E0,8.557128906E0,4.415290833E0
6.434803130E-1,1.267016172E0,8.499637604E0,4.611720085E0
6.454847920E-1,1.262225151E0,8.451727867E0,4.664420605E0
6.474892710E-1,1.147242188E0,8.446936607E0,4.559019566E0
6.494937500E-1,1.022677302E0,8.494846344E0,4.400918007E0
6.514982290E-1,1.032259226E0,8.470891953E0,4.621301651E0
6.535027090E-1,1.032259226E0,8.418190956E0,4.674002171E0
6.555071880E-1,9.699767828E-1,8.394236565E0,4.659629345E0
6.575116670E-1,8.741576672E-1,8.427773476E0,4.573392391E0
6.595161460E-1,8.981124163E-1,8.394236565E0,4.688375473E0
6.615206250E-1,8.933214545E-1,8.365490913E0,4.717121124E0
6.635251040E-1,8.454118967E-1,8.346326828E0,4.602138042E0
6.655295840E-1,8.262480497E-1,8.346326828E0,4.640465736E0
6.675340630E-1,8.358299732E-1,8.322372437E0,4.721911907E0
6.695385420E-1,8.070842624E-1,8.303208351E0,4.712329865E0
6.715430210E-1,8.070842624E-1,8.317581177E0,4.635674953E0
6.735475000E-1,8.693667054E-1,8.327162743E0,4.793776512E0
6.755519790E-1,1.276598096E0,8.485264778E0,5.014160156E0
6.775564590E-1,1.358044267E0,8.533174515E0,5.018951416E0
6.795609380E-1,1.243061304E0,8.475682259E0,4.745866776E0
6.815654170E-1,1.142451286E0,8.437355042E0,4.741075993E0
6.835698960E-1,1.094541669E0,8.490055084E0,4.971041679E0
6.855743750E-1,1.152033210E0,8.494846344E0,4.793776512E0
6.875788540E-1,1.080168843E0,8.547547340E0,4.554228306E0
6.895833340E-1,1.051423073E0,8.561920166E0,4.563810349E0
6.915878130E-1,9.651858211E-1,8.609828949E0,4.444036484E0
6.935922920E-1,8.885304928E-1,8.624202728E0,4.434454441E0
6.955967710E-1,7.927113771E-1,8.672111511E0,4.329053402E0
6.976012500E-1,7.256379724E-1,8.681694031E0,4.247607231E0
6.996057290E-1,6.346098185E-1,8.667321205E0,4.314680576E0
7.016102090E-1,5.627454519E-1,8.672111511E0,4.338635445E0
7.036146880E-1,5.339996815E-1,8.662529945E0,4.314680576E0
7.056191670E-1,4.573444128E-1,8.648157120E0,4.329053402E0
7.076236460E-1,3.950619698E-1,8.652948380E0,4.319471359E0
7.096281250E-1,3.854800463E-1,8.614620209E0,4.396126747E0
7.116326040E-1,3.663161993E-1,8.571501732E0,4.424872398E0
7.136370840E-1,2.848699391E-1,8.561920166E0,4.410499573E0
7.156415630E-1,2.465422899E-1,8.590665817E0,4.348217487E0
7.176460420E-1,1.603050530E-1,8.566710472E0,4.295516968E0
7.196505210E-1,1.507231444E-1,8.533174515E0,4.295516968E0
7.216550000E-1,6.448591501E-2,8.561920166E0,4.305098534E0
7.236594790E-1,6.994426250E-3,8.581083298E0,4.242815971E0
7.256639590E-1,-2.175131440E-2,8.581083298E0,4.199697495E0
7.276684380E-1,-3.612418473E-2,8.571501732E0,4.142206192E0
7.296729690E-1,-6.966088712E-2,8.595456123E0,4.137414932E0
7.316775000E-1,-1.031975895E-1,8.605038643E0,4.132624149E0
7.336820310E-1,-1.463162005E-1,8.633784294E0,4.103878498E0
7.356865630E-1,-1.319433302E-1,8.609828949E0,4.099087238E0
7.376910940E-1,-1.798529029E-1,8.643365860E0,3.988895416E0
7.396956250E-1,-1.894348115E-1,8.686484337E0,3.955358744E0
7.417001560E-1,-2.038076967E-1,8.729603767E0,3.936194897E0
7.437046880E-1,-1.990167350E-1,8.715229988E0,3.984104633E0
7.457092190E-1,-1.942257732E-1,8.710439682E0,3.993686438E0
7.477137500E-1,-1.846438497E-1,8.700857162E0,3.979313612E0
7.497182810E-1,-1.702709794E-1,8.724812508E0,3.931404114E0
7.517228130E-1,-1.846438497E-1,8.739185333E0,3.912240267E0
7.537273440E-1,-1.750619411E-1,8.729603767E0,3.912240267E0
7.557318750E-1,-1.415252388E-1,8.715229988E0,3.917031288E0
7.577364060E-1,-1.415252388E-1,8.715229988E0,3.912240267E0
7.597409380E-1,-1.175704598E-1,8.686484337E0,3.936194897E0
7.617454690E-1,-9.840662777E-2,8.662529945E0,3.917031288E0
7.637500000E-1,-9.361566603E-2,8.657738686E0,3.955358744E0
7.657545310E-1,-6.486992538E-2,8.628993034E0,3.964940786E0
7.677590630E-1,-2.175131440E-2,8.595456123E0,3.964940786E0
7.697635940E-1,-2.587486058E-3,8.566710472E0,3.955358744E0
7.717681250E-1,1.657634228E-2,8.504427910E0,3.940985918E0
7.737726560E-1,2.136730030E-2,8.480473518E0,3.955358744E0
7.757771880E-1,-2.587486058E-3,8.494846344E0,3.945776939E0
7.777817190E-1,2.136730030E-2,8.485264778E0,3.955358744E0
7.797862500E-1,1.028135717E-1,8.451727867E0,3.979313612E0
7.817907810E-1,1.219773963E-1,8.442146301E0,3.998477459E0
7.837953130E-1,1.171864420E-1,8.437355042E0,3.974522591E0
7.857998440E-1,1.650960147E-1,8.413399696E0,3.950567961E0
7.878043750E-1,1.171864420E-1,8.413399696E0,3.964940786E0
7.898089060E-1,1.171864420E-1,8.399026871E0,3.969731808E0
7.918133860E-1,1.076045260E-1,8.399026871E0,3.960149765E0
7.938178650E-1,1.219773963E-1,8.384654045E0,3.926613092E0
7.958223440E-1,1.028135717E-1,8.351118088E0,3.940985918E0
7.978268230E-1,9.323165566E-2,8.336745262E0,3.936194897E0
7.998313020E-1,5.011304095E-2,8.394236565E0,3.921822071E0
8.018357810E-1,1.657634228E-2,8.399026871E0,3.869121552E0
8.038402610E-1,1.178538427E-2,8.375072479E0,3.826003075E0
8.058447400E-1,6.994426250E-3,8.370281219E0,3.797257185E0
8.078492190E-1,-2.587486058E-3,8.336745262E0,3.763720512E0
8.098536980E-1,-1.696036011E-2,8.307998657E0,3.754138708E0
8.118581770E-1,-7.378444076E-3,8.307998657E0,3.754138708E0
8.138626560E-1,-4.570610076E-2,8.351118088E0,3.739765882E0
8.158671360E-1,-6.486992538E-2,8.322372437E0,3.706228971E0
8.178716150E-1,-8.882471919E-2,8.341535568E0,3.658319473E0
8.198760940E-1,-7.924279571E-2,8.384654045E0,3.634364605E0
8.218805730E-1,-7.924279571E-2,8.399026871E0,3.557709455E0
8.238850520E-1,-4.570610076E-2,8.403818130E0,3.500217915E0
8.258895310E-1,-6.966088712E-2,8.422982216E0,3.452308416E0
8.278940110E-1,-4.570610076E-2,8.379863739E0,3.399607897E0
8.298984900E-1,-4.570610076E-2,8.351118088E0,3.366071224E0
8.319029690E-1,-3.133323044E-2,8.322372437E0,3.327743530E0
8.339074480E-1,-2.654226869E-2,8.327162743E0,3.318161488E0
8.359119270E-1,-1.216939837E-2,8.336745262E0,3.289415836E0
8.379164060E-1,-2.587486058E-3,8.341535568E0,3.251088142E0
8.399208860E-1,2.136730030E-2,8.336745262E0,3.279833794E0
8.419253650E-1,5.011304095E-2,8.322372437E0,3.313370705E0
8.439298440E-1,6.448591501E-2,8.284044266E0,3.284624815E0
8.459343230E-1,1.028135717E-1,8.264880180E0,3.303788662E0
8.479388020E-1,1.123954803E-1,8.284044266E0,3.275043011E0
8.499432810E-1,1.603050530E-1,8.293625832E0,3.255879164E0
8.519477610E-1,1.938417554E-1,8.331954002E0,3.270251989E0
8.539522400E-1,1.842598468E-1,8.370281219E0,3.260669947E0
8.559567190E-1,1.938417554E-1,8.413399696E0,3.270251989E0
8.579611980E-1,2.225874960E-1,8.437355042E0,3.322952509E0
8.599656770E-1,2.704970837E-1,8.461309433E0,3.327743530E0
8.619701560E-1,3.136156797E-1,8.490055084E0,3.337325335E0
8.639746360E-1,3.567342758E-1,8.528383255E0,3.370862007E0
8.659791150E-1,3.615252376E-1,8.547547340E0,3.346907377E0
8.679835940E-1,3.279885650E-1,8.600247383E0,3.366071224E0
8.699880730E-1,3.663161993E-1,8.628993034E0,3.380444050E0
8.719925520E-1,4.429715276E-1,8.681694031E0,3.318161488E0
8.739970310E-1,5.004630089E-1,8.657738686E0,3.241506338E0
8.760015110E-1,4.860901237E-1,8.643365860E0,3.198387623E0
8.780059900E-1,5.148358941E-1,8.681694031E0,3.116941452E0
8.800104690E-1,5.483725667E-1,8.710439682E0,3.078613758E0
8.820149480E-1,6.250278950E-1,8.753558159E0,2.968421698E0
8.840194270E-1,6.777284145E-1,8.767930984E0,2.915721178E0
8.860239060E-1,7.304289341E-1,8.796676636E0,2.915721178E0
8.880283860E-1,8.645757437E-1,8.801467896E0,2.958839655E0
8.900328650E-1,9.412310719E-1,8.791885376E0,2.872602463E0
8.920373440E-1,1.051423073E0,8.791885376E0,2.872602463E0
8.940418230E-1,1.099332571E0,8.835004807E0,2.839065790E0
8.960463020E-1,1.166406035E0,8.839795113E0,2.819901943E0
8.980507810E-1,1.286179900E0,8.825422287E0,2.925302982E0
9.000552610E-1,1.338880539E0,8.844586372E0,2.939676046E0
9.020597400E-1,1.377208114E0,8.839795113E0,2.925302982E0
9.040642190E-1,1.429908633E0,8.811049461E0,2.963630676E0
9.060686980E-1,1.401162982E0,8.849377632E0,2.982794523E0
9.080731770E-1,1.463445425E0,8.820631981E0,3.030704021E0
9.100776560E-1,1.439490557E0,8.830213547E0,3.102568388E0
9.120821360E-1,1.449072480E0,8.849377632E0,3.116941452E0
9.140866150E-1,1.463445425E0,8.911659241E0,3.078613758E0
9.160910940E-1,1.473027229E0,8.954778671E0,3.078613758E0
9.180955730E-1,1.511354923E0,8.973941803E0,3.054658890E0
9.201000520E-1,1.588010311E0,8.964360237E0,3.088195562E0
9.221045310E-1,1.602383137E0,8.964360237E0,3.064240932E0
9.241090110E-1,1.592801213E0,9.017060280E0,2.963630676E0
9.261134900E-1,1.626337886E0,9.055388451E0,3.006749392E0
9.281179690E-1,1.674247503E0,9.031434059E0,3.054658890E0
9.301224480E-1,1.717366099E0,9.050597191E0,3.021122217E0
9.321269270E-1,1.736529946E0,9.084134102E0,3.001958370E0
9.341314060E-1,1.794021368E0,9.103298187E0,2.910930157E0
9.361358860E-1,1.770066619E0,9.098506927E0,2.872602463E0
9.381403650E-1,1.827558160E0,9.122462273E0,2.863020658E0
9.401448440E-1,1.885049582E0,9.103298187E0,2.805529118E0
9.421493230E-1,1.909004331E0,9.136835098E0,2.767201424E0
9.441538020E-1,1.889840603E0,9.194326401E0,2.657009363E0
9.461582810E-1,1.928168178E0,9.218280792E0,2.661800385E0
9.481627610E-1,1.904213428E0,9.227863312E0,2.680964231E0
9.501672400E-1,1.909004331E0,9.199116707E0,2.791156292E0
9.521717190E-1,1.913795352E0,9.227863312E0,2.719291925E0
9.541761980E-1,1.947332025E0,9.266190529E0,2.412670612E0
9.561806770E-1,1.961704850E0,9.203907967E0,2.312060595E0
9.581851560E-1,1.980868697E0,9.270981789E0,2.508489847E0
9.601896360E-1,2.062314987E0,9.333264351E0,2.700128078E0
9.621941150E-1,2.177298069E0,9.409918785E0,2.810320139E0
9.641985940E-1,2.186879873E0,9.467411041E0,2.824692965E0
9.662030730E-1,2.196461916E0,9.476992607E0,2.810320139E0
9.682075520E-1,2.258744240E0,9.515319824E0,2.733664751E0
9.702120310E-1,2.287489891E0,9.520111084E0,2.685755253E0
9.722165110E-1,2.268326044E0,9.524902344E0,2.733664751E0
9.742209900E-1,2.383309126E0,9.568020821E0,2.843856812E0
9.762254690E-1,2.397681952E0,9.587184906E0,2.685755253E0
9.782299480E-1,2.440800667E0,9.630303383E0,2.355179071E0
9.802344270E-1,2.517455816E0,9.615930557E0,2.340806246E0
9.822389060E-1,2.579738379E0,9.544066429E0,2.508489847E0
9.842433860E-1,2.613275051E0,9.563229561E0,2.508489847E0
9.862478650E-1,2.598902225E0,9.615930557E0,2.565981388E0
9.882523440E-1,2.627647877E0,9.649467468E0,2.513280869E0
9.902568230E-1,2.718676090E0,9.678213120E0,2.542026520E0
9.922613020E-1,2.752212763E0,9.692585945E0,2.527653694E0
9.942657810E-1,2.737839937E0,9.659049034E0,2.503698826E0
9.962702610E-1,2.780958652E0,9.639884949E0,2.398297787E0
9.982747400E-1,2.843240976E0,9.620721817E0,2.359970093E0
1.000279219E0,2.857613802E0,9.644676208E0,2.221032381E0
1.002283698E0,2.891150475E0,9.659049034E0,2.302478552E0
1.004288177E0,2.910314322E0,9.620721817E0,2.393506765E0
1.006292656E0,2.948642015E0,9.524902344E0,2.494117022E0
1.008297136E0,2.982178688E0,9.448246956E0,2.633054733E0
1.010301615E0,3.015715361E0,9.429082870E0,2.613890886E0
1.012306094E0,3.034879208E0,9.395545959E0,2.613890886E0
1.014310573E0,3.044461250E0,9.362010002E0,2.704919100E0
1.016315052E0,3.044461250E0,9.342845917E0,2.791156292E0
1.018319531E0,2.986969709E0,9.357218742E0,2.781574249E0
1.020324011E0,2.934269190E0,9.376382828E0,2.786365271E0
1.022328490E0,2.905523539E0,9.357218742E0,2.815111160E0
1.024332969E0,2.891150475E0,9.323681831E0,2.805529118E0
1.026337448E0,2.857613802E0,9.338054657E0,2.771992445E0
1.028341927E0,2.795331478E0,9.371591568E0,2.733664751E0
1.030346406E0,2.776167631E0,9.405128479E0,2.652218580E0
1.032350886E0,2.800122499E0,9.395545959E0,2.685755253E0
1.034355365E0,2.795331478E0,9.385964394E0,2.690546274E0
1.036359844E0,2.838449955E0,9.323681831E0,2.810320139E0
1.038364323E0,2.819286108E0,9.270981789E0,2.882184505E0
1.040368802E0,2.757003784E0,9.294936180E0,2.891766310E0
1.042373281E0,2.694721222E0,9.299727440E0,2.968421698E0
1.044377813E0,2.665975571E0,9.347637177E0,2.958839655E0
1.046382344E0,2.637229919E0,9.385964394E0,2.939676046E0
1.048386875E0,2.598902225E0,9.433874130E0,2.930094004E0
1.050391406E0,2.584529400E0,9.510529518E0,2.968421698E0
1.052395938E0,2.546201706E0,9.563229561E0,2.949257851E0
1.054400469E0,2.560574532E0,9.615930557E0,2.925302982E0
1.056405000E0,2.608484030E0,9.668630600E0,2.930094004E0
1.058409531E0,2.618066072E0,9.740495682E0,2.930094004E0
1.060414063E0,2.651602745E0,9.759658813E0,2.949257851E0
1.062418594E0,2.646811724E0,9.788404465E0,2.963630676E0
1.064423125E0,2.656393766E0,9.855478287E0,2.992376566E0
1.066427656E0,2.661184549E0,9.932133675E0,3.030704021E0
1.068432188E0,2.670766592E0,9.936924934E0,2.982794523E0
1.070436719E0,2.718676090E0,9.956088066E0,2.987585545E0
1.072441250E0,2.656393766E0,9.965670586E0,2.944466829E0
1.074445781E0,2.656393766E0,9.989624977E0,2.973212719E0
1.076450313E0,2.694721222E0,1.001357937E1,2.968421698E0
1.078454844E0,2.737839937E0,9.999206543E0,2.978003502E0
1.080459375E0,2.780958652E0,9.999206543E0,2.992376566E0
1.082463906E0,2.747421980E0,1.000878906E1,2.958839655E0
1.084468438E0,2.795331478E0,9.980043411E0,2.939676046E0
1.086472969E0,2.776167631E0,9.994416237E0,2.934885025E0
1.088477500E0,2.800122499E0,9.970460892E0,2.934885025E0
1.090482031E0,2.790540457E0,9.956088066E0,2.834274769E0
1.092486563E0,2.852823019E0,9.922552109E0,2.886975288E0
1.094491094E0,2.876777649E0,9.898596764E0,2.949257851E0
1.096495625E0,2.848031998E0,9.908178329E0,2.910930157E0
1.098500156E0,2.862404823E0,9.903388023E0,2.886975288E0
1.100504688E0,2.852823019E0,9.889015198E0,2.858229637E0
1.102509219E0,2.843240976E0,9.869851112E0,2.824692965E0
1.104513750E0,2.824077129E0,9.860269547E0,2.776783466E0
1.106518229E0,2.848031998E0,9.812359810E0,2.815111160E0
1.108522709E0,2.848031998E0,9.812359810E0,2.843856812E0
1.110527188E0,2.814495325E0,9.807568550E0,2.829483986E0
1.112531667E0,2.747421980E0,9.812359810E0,2.819901943E0
1.114536146E0,2.790540457E0,9.769241333E0,2.800738096E0
1.116540625E0,2.780958652E0,9.769241333E0,2.839065790E0
1.118545104E0,2.790540457E0,9.788404465E0,2.834274769E0
1.120549584E0,2.824077129E0,9.778822899E0,2.872602463E0
1.122554063E0,2.857613802E0,9.783614159E0,2.891766310E0
1.124558542E0,2.833659172E0,9.778822899E0,2.901348352E0
1.126563021E0,2.776167631E0,9.783614159E0,2.901348352E0
1.128567500E0,2.752212763E0,9.783614159E0,2.891766310E0
1.130571979E0,2.737839937E0,9.802777290E0,2.863020658E0
1.132576459E0,2.670766592E0,9.802777290E0,2.824692965E0
1.134580938E0,2.622857094E0,9.774031639E0,2.824692965E0
1.136585417E0,2.522246838E0,9.817150116E0,2.776783466E0
1.138589896E0,2.522246838E0,9.865059853E0,2.815111160E0
1.140594375E0,2.555783510E0,9.884223938E0,2.848647833E0
1.142598854E0,2.531828880E0,9.908178329E0,2.872602463E0
1.144603334E0,2.527037859E0,9.956088066E0,2.872602463E0
1.146607813E0,2.507874012E0,9.951297760E0,2.795947313E0
1.148612292E0,2.469546318E0,9.956088066E0,2.791156292E0
1.150616771E0,2.421636820E0,1.000878906E1,2.762410402E0
1.152621250E0,2.455173492E0,1.002795315E1,2.776783466E0
1.154625729E0,2.469546318E0,1.005190754E1,2.757619619E0
1.156630209E0,2.440800667E0,1.013335419E1,2.704919100E0
1.158634688E0,2.416845798E0,1.013814449E1,2.690546274E0
1.160639167E0,2.373727322E0,1.015730858E1,2.676173210E0
1.162643646E0,2.378518105E0,1.019563580E1,2.657009363E0
1.164648125E0,2.368936300E0,1.022438240E1,2.604308844E0
1.166652604E0,2.373727322E0,1.020042706E1,2.594727039E0
1.168657084E0,2.373727322E0,1.015251732E1,2.570772171E0
1.170661563E0,2.373727322E0,1.012856293E1,2.565981388E0
1.172666042E0,2.397681952E0,1.012856293E1,2.599518061E0
1.174670521E0,2.397681952E0,1.011898041E1,2.604308844E0
1.176675000E0,2.378518105E0,1.009023476E1,2.628263712E0
1.178679479E0,2.364145279E0,1.009981728E1,2.618681908E0
1.180683959E0,2.335399628E0,1.011898041E1,2.527653694E0
1.182688438E0,2.306653738E0,1.006628036E1,2.489326000E0
1.184692917E0,2.196461916E0,1.001837063E1,2.518071651E0
1.186697396E0,2.143761158E0,1.000878906E1,2.542026520E0
1.188701875E0,2.143761158E0,9.970460892E0,2.561190367E0
1.190706354E0,2.105433702E0,9.932133675E0,2.542026520E0
1.192710834E0,2.028778315E0,9.898596764E0,2.556399345E0
1.194715313E0,1.980868697E0,9.874642372E0,2.556399345E0
1.196719792E0,1.923377275E0,9.879432678E0,2.527653694E0
1.198724271E0,1.861094832E0,9.884223938E0,2.556399345E0
1.200728750E0,1.846721888E0,9.860269547E0,2.580354214E0
1.202733229E0,1.755693793E0,9.850687027E0,2.618681908E0
1.204737709E0,1.707784176E0,9.826732635E0,2.599518061E0
1.206742188E0,1.655083656E0,9.802777290E0,2.623472691E0
1.208746667E0,1.616755962E0,9.774031639E0,2.623472691E0
1.210751146E0,1.535309672E0,9.750077248E0,2.613890886E0
1.212755625E0,1.482609153E0,9.721331596E0,2.628263712E0
1.214760104E0,1.425117731E0,9.716540337E0,2.637845755E0
1.216764584E0,1.362835288E0,9.697376251E0,2.647427559E0
1.218769063E0,1.281388998E0,9.706958771E0,2.642636538E0
1.220773542E0,1.228688478E0,9.706958771E0,2.657009363E0
1.222778021E0,1.180778861E0,9.687794685E0,2.647427559E0
1.224782500E0,1.142451286E0,9.673421860E0,2.633054733E0
1.226786979E0,1.104123592E0,9.663840294E0,2.671382427E0
1.228791459E0,1.065795898E0,9.659049034E0,2.657009363E0
1.230795938E0,1.046632171E0,9.673421860E0,2.618681908E0
1.232800417E0,1.013095379E0,9.678213120E0,2.594727039E0
1.234804896E0,9.987225533E-1,9.663840294E0,2.618681908E0
1.236809375E0,9.651858211E-1,9.654257774E0,2.575563192E0
1.238813854E0,9.603948593E-1,9.615930557E0,2.565981388E0
1.240818334E0,9.364401102E-1,9.654257774E0,2.570772171E0
1.242822813E0,9.316491485E-1,9.683003426E0,2.575563192E0
1.244827292E0,9.172762632E-1,9.673421860E0,2.565981388E0
1.246831771E0,8.885304928E-1,9.683003426E0,2.589936018E0
1.248836250E0,8.933214545E-1,9.663840294E0,2.518071651E0
1.250840729E0,8.837395310E-1,9.702167511E0,2.556399345E0
1.252845209E0,8.885304928E-1,9.711749077E0,2.527653694E0
1.254849688E0,8.358299732E-1,9.706958771E0,2.460580111E0
1.256854167E0,8.406209350E-1,9.706958771E0,2.431834459E0
1.258858646E0,8.885304928E-1,9.706958771E0,2.436625481E0
1.260863125E0,8.789486289E-1,9.668630600E0,2.412670612E0
1.262867604E0,8.597847819E-1,9.687794685E0,2.369552135E0
1.264872084E0,8.022933006E-1,9.716540337E0,2.321642399E0
1.266876563E0,7.879204154E-1,9.721331596E0,2.350388288E0
1.268881042E0,8.070842624E-1,9.764450073E0,2.345597267E0
1.270885521E0,8.406209350E-1,9.778822899E0,2.369552135E0
1.272890000E0,8.789486289E-1,9.783614159E0,2.336015224E0
1.274894479E0,8.933214545E-1,9.750077248E0,2.292896748E0
1.276898959E0,8.310390115E-1,9.754868507E0,2.278523922E0
1.278903438E0,7.591747046E-1,9.730913162E0,2.249778032E0
1.280907917E0,7.495927811E-1,9.754868507E0,2.221032381E0
1.282912396E0,6.968922615E-1,9.721331596E0,2.120422125E0
1.284916875E0,6.825193763E-1,9.697376251E0,2.134795189E0
1.286921354E0,7.160560489E-1,9.673421860E0,2.062930822E0
1.288925834E0,7.735475302E-1,9.639884949E0,2.077303648E0
1.290930313E0,8.022933006E-1,9.635094643E0,2.115631342E0
1.292934792E0,8.118752241E-1,9.601557732E0,2.125213146E0
1.294939271E0,8.214571476E-1,9.615930557E0,2.120422125E0
1.296943750E0,7.879204154E-1,9.620721817E0,2.062930822E0
1.298948229E0,7.400108576E-1,9.635094643E0,2.048557758E0
1.300952709E0,7.112650871E-1,9.611139297E0,2.072512627E0
1.302957188E0,7.304289341E-1,9.606348038E0,2.091676474E0
1.304961667E0,7.160560489E-1,9.620721817E0,2.072512627E0
1.306966146E0,6.394007206E-1,9.625512123E0,2.034184933E0
1.308970625E0,6.106550097E-1,9.635094643E0,2.000648260E0
1.310975104E0,6.058640480E-1,9.611139297E0,1.962320685E0
1.312979584E0,5.771182775E-1,9.611139297E0,1.971902609E0
1.314984063E0,5.339996815E-1,9.611139297E0,1.947947860E0
1.316988542E0,5.244178176E-1,9.611139297E0,1.947947860E0
1.318993021E0,5.244178176E-1,9.563229561E0,1.952738762E0
1.320997500E0,5.387906432E-1,9.553647995E0,1.928784013E0
1.323001979E0,5.483725667E-1,9.563229561E0,1.938365936E0
1.325006459E0,5.771182775E-1,9.553647995E0,1.986275434E0
1.327010938E0,6.202369332E-1,9.534483910E0,1.995857358E0
1.329015417E0,6.346098185E-1,9.539275169E0,2.029393911E0
1.331019896E0,6.489826441E-1,9.534483910E0,1.991066456E0
1.333024375E0,6.154459715E-1,9.563229561E0,2.015021086E0
1.335028854E0,6.250278950E-1,9.563229561E0,2.048557758E0
1.337033334E0,6.346098185E-1,9.572812080E0,2.038975954E0
1.339037813E0,5.962821245E-1,9.539275169E0,2.010230303E0
1.341042292E0,5.531635284E-1,9.524902344E0,2.010230303E0
1.343046771E0,5.339996815E-1,9.520111084E0,2.015021086E0
1.345051250E0,5.339996815E-1,9.529693604E0,1.995857358E0
1.347055729E0,5.244178176E-1,9.539275169E0,2.005439281E0
1.349060209E0,5.148358941E-1,9.548856735E0,2.015021086E0
1.351064688E0,4.812991619E-1,9.558439255E0,2.038975954E0
1.353069219E0,4.717172384E-1,9.544066429E0,2.058139801E0
1.355073750E0,4.477624893E-1,9.558439255E0,2.062930822E0
1.357078281E0,4.285986423E-1,9.539275169E0,2.058139801E0
1.359082813E0,4.046438932E-1,9.505738258E0,2.067721605E0
1.361087344E0,4.238076806E-1,9.491365433E0,2.096467495E0
1.363091875E0,4.094347954E-1,9.448246956E0,2.130004168E0
1.365096406E0,3.950619698E-1,9.457828522E0,2.149168015E0
1.367100938E0,3.758981228E-1,9.443455696E0,2.158749819E0
1.369105469E0,3.711071610E-1,9.424292564E0,2.173122644E0
1.371110000E0,3.471523523E-1,9.419501305E0,2.153958797E0
1.373114531E0,3.136156797E-1,9.429082870E0,2.168331861E0
1.375119063E0,2.848699391E-1,9.419501305E0,2.139585972E0
1.377123594E0,2.513332367E-1,9.395545959E0,2.182704687E0
1.379128125E0,2.177965343E-1,9.376382828E0,2.149168015E0
1.381132656E0,2.273784578E-1,9.371591568E0,2.173122644E0
1.383137188E0,1.986327171E-1,9.390755653E0,2.216241360E0
1.385141719E0,1.842598468E-1,9.357218742E0,2.163540840E0
1.387146250E0,1.363502741E-1,9.347637177E0,2.163540840E0
1.389150781E0,1.171864420E-1,9.352427483E0,2.149168015E0
1.391155313E0,6.448591501E-2,9.328473091E0,2.168331861E0
1.393159844E0,5.490399897E-2,9.318890572E0,2.153958797E0
1.395164375E0,6.994426250E-3,9.328473091E0,2.134795189E0
1.397168906E0,-3.133323044E-2,9.309309006E0,2.115631342E0
1.399173438E0,-3.612418473E-2,9.299727440E0,2.139585972E0
1.401177969E0,-8.882471919E-2,9.314100266E0,2.125213146E0
1.403182500E0,-1.079885364E-1,9.338054657E0,2.130004168E0
1.405187031E0,-1.606890708E-1,9.376382828E0,2.125213146E0
1.407191563E0,-1.990167350E-1,9.424292564E0,2.158749819E0
1.409196094E0,-2.038076967E-1,9.448246956E0,2.115631342E0
1.411200625E0,-2.421353310E-1,9.429082870E0,2.115631342E0
1.413205156E0,-2.996268272E-1,9.462619781E0,2.110840321E0
1.415209636E0,-3.667002320E-1,9.472201347E0,2.120422125E0
1.417214115E0,-4.050278664E-1,9.496156693E0,2.115631342E0
1.419218594E0,-4.241917133E-1,9.462619781E0,2.115631342E0
1.421223073E0,-4.146097898E-1,9.429082870E0,2.077303648E0
1.423227552E0,-5.056380033E-1,9.429082870E0,2.106049299E0
1.425232031E0,-5.439656377E-1,9.462619781E0,2.139585972E0
1.427236511E0,-5.583385229E-1,9.500946999E0,2.158749819E0
1.429240990E0,-6.110390425E-1,9.529693604E0,2.177913666E0
1.431245469E0,-6.493667364E-1,9.553647995E0,2.197077513E0
1.433249948E0,-6.733214855E-1,9.572812080E0,2.221032381E0
1.435254427E0,-7.164400816E-1,9.572812080E0,2.230614185E0
1.437258906E0,-7.356039286E-1,9.620721817E0,2.249778032E0
1.439263386E0,-8.170502186E-1,9.630303383E0,2.254569054E0
1.441267865E0,-8.314231038E-1,9.625512123E0,2.283314705E0
1.443272344E0,-8.505868912E-1,9.635094643E0,2.316851616E0
1.445276823E0,-8.937055469E-1,9.630303383E0,2.307269573E0
1.447281302E0,-9.368241429E-1,9.644676208E0,2.331224442E0
1.449285781E0,-9.799427986E-1,9.644676208E0,2.316851616E0
1.451290261E0,-1.013479471E0,9.649467468E0,2.336015224E0
1.453294740E0,-1.042225242E0,9.620721817E0,2.359970093E0
1.455299219E0,-1.061388969E0,9.591975212E0,2.345597267E0
1.457303698E0,-1.090134740E0,9.596766472E0,2.374342918E0
1.459308177E0,-1.099716663E0,9.544066429E0,2.388715982E0
1.461312656E0,-1.114089489E0,9.529693604E0,2.431834459E0
1.463317136E0,-1.118880510E0,9.505738258E0,2.412670612E0
1.465321615E0,-1.109298587E0,9.491365433E0,2.436625481E0
1.467326094E0,-1.128462434E0,9.467411041E0,2.450998306E0
1.469330573E0,-1.166790128E0,9.481783867E0,2.450998306E0
1.471335052E0,-1.205117702E0,9.467411041E0,2.436625481E0
1.473339531E0,-1.195535779E0,9.457828522E0,2.422252655E0
1.475344011E0,-1.229072571E0,9.496156693E0,2.403088808E0
1.477348490E0,-1.238654375E0,9.462619781E0,2.364761114E0
1.479352969E0,-1.243445396E0,9.443455696E0,2.388715982E0
1.481357448E0,-1.257818222E0,9.429082870E0,2.336015224E0
1.483361927E0,-1.272191167E0,9.438665390E0,2.340806246E0
1.485366406E0,-1.305727839E0,9.419501305E0,2.350388288E0
1.487370886E0,-1.324891686E0,9.462619781E0,2.388715982E0
1.489375365E0,-1.296145916E0,9.491365433E0,2.393506765E0
1.491379844E0,-1.320100665E0,9.544066429E0,2.374342918E0
1.493384323E0,-1.339264512E0,9.568020821E0,2.369552135E0
1.495388802E0,-1.358428359E0,9.553647995E0,2.331224442E0
1.497393281E0,-1.348846436E0,9.582393646E0,2.283314705E0
1.499397761E0,-1.339264512E0,9.587184906E0,2.259360075E0
1.501402240E0,-1.334473610E0,9.577602386E0,2.211450338E0
1.503406719E0,-1.320100665E0,9.553647995E0,2.211450338E0
1.505411198E0,-1.291355014E0,9.606348038E0,2.225823164E0
1.507415677E0,-1.267400146E0,9.591975212E0,2.187495708E0
1.509420156E0,-1.248236299E0,9.572812080E0,2.153958797E0
1.511424636E0,-1.272191167E0,9.553647995E0,2.110840321E0
1.513429115E0,-1.291355014E0,9.548856735E0,2.058139801E0
1.515433594E0,-1.262609243E0,9.548856735E0,2.038975954E0
1.517438073E0,-1.296145916E0,9.544066429E0,2.005439281E0
1.519442552E0,-1.329682589E0,9.544066429E0,1.967111588E0
1.521447031E0,-1.257818222E0,9.582393646E0,1.957529783E0
1.523451511E0,-1.233863473E0,9.577602386E0,1.986275434E0
1.525455990E0,-1.157208204E0,9.615930557E0,2.010230303E0
1.527460469E0,-1.114089489E0,9.611139297E0,2.082094669E0
1.529464948E0,-1.099716663E0,9.591975212E0,2.015021086E0
1.531469427E0,-1.114089489E0,9.625512123E0,1.995857358E0
1.533473906E0,-1.056598067E0,9.625512123E0,2.015021086E0
1.535478386E0,-1.032643318E0,9.659049034E0,1.981484532E0
1.537482865E0,-1.066179991E0,9.687794685E0,1.981484532E0
1.539487344E0,-1.056598067E0,9.687794685E0,1.981484532E0
1.541491823E0,-1.047016144E0,9.711749077E0,2.005439281E0
1.543496302E0,-1.008688450E0,9.706958771E0,1.995857358E0
1.545500781E0,-9.847337008E-1,9.750077248E0,2.010230303E0
1.547505261E0,-9.128693342E-1,9.745285988E0,2.034184933E0
1.549509740E0,-8.697507381E-1,9.740495682E0,2.019812107E0
1.551514219E0,-8.410049677E-1,9.750077248E0,1.971902609E0
1.553518698E0,-8.457959294E-1,9.740495682E0,1.914411068E0
1.555523177E0,-8.170502186E-1,9.716540337E0,1.885665417E0
1.557527656E0,-7.835134864E-1,9.726122856E0,1.871292472E0
1.559532136E0,-7.260220051E-1,9.726122856E0,1.804219127E0
1.561536615E0,-7.068582177E-1,9.716540337E0,1.746727586E0
1.563541094E0,-6.876943707E-1,9.668630600E0,1.713190913E0
1.565545573E0,-6.206209660E-1,9.639884949E0,1.660490394E0
1.567550052E0,-5.870842934E-1,9.649467468E0,1.631744623E0
1.569554531E0,-5.918751955E-1,9.663840294E0,1.583835125E0
1.571559011E0,-5.775023699E-1,9.697376251E0,1.507179737E0
1.573563490E0,-5.295927525E-1,9.711749077E0,1.464061141E0
1.575567969E0,-4.960560799E-1,9.735704422E0,1.444897294E0
1.577572448E0,-4.577284455E-1,9.783614159E0,1.382614851E0
1.579576927E0,-4.289826751E-1,9.793195724E0,1.344287276E0
1.581581406E0,-4.050278664E-1,9.793195724E0,1.277213812E0
1.583585886E0,-4.050278664E-1,9.845896721E0,1.229304194E0
1.585590365E0,-4.721012712E-1,9.903388023E0,1.210140347E0
1.587594844E0,-4.912651181E-1,9.941715240E0,1.167021751E0
1.589599323E0,-5.104289651E-1,9.960879326E0,1.133485079E0
1.591603802E0,-5.008470416E-1,9.975252151E0,1.171812773E0
1.593608281E0,-5.391746759E-1,1.000878906E1,1.162230849E0
1.595612761E0,-5.487565994E-1,1.000878906E1,1.099948406E0
1.597617240E0,-5.918751955E-1,1.000878906E1,1.080784559E0
1.599621719E0,-6.254119277E-1,1.001837063E1,1.075993538E0
1.601626198E0,-6.254119277E-1,1.001837063E1,1.109530330E0
1.603630677E0,-6.302028894E-1,1.001357937E1,1.138275981E0
1.605635156E0,-6.110390425E-1,9.994416237E0,1.200558424E0
1.607639636E0,-6.206209660E-1,9.951297760E0,1.253259063E0
1.609644115E0,-6.062480807E-1,9.936924934E0,1.291586637E0
1.611648594E0,-6.302028894E-1,9.879432678E0,1.353869081E0
1.613653073E0,-6.254119277E-1,9.845896721E0,1.401778698E0
1.615657552E0,-5.870842934E-1,9.793195724E0,1.444897294E0
1.617662031E0,-5.918751955E-1,9.754868507E0,1.459270239E0
1.619666511E0,-5.870842934E-1,9.721331596E0,1.488015890E0
1.621670990E0,-5.679204464E-1,9.687794685E0,1.535925508E0
1.623675469E0,-5.822933316E-1,9.649467468E0,1.559880257E0
1.625679948E0,-5.775023699E-1,9.625512123E0,1.564671278E0
1.627684427E0,-5.583385229E-1,9.615930557E0,1.602998853E0
1.629688906E0,-5.487565994E-1,9.611139297E0,1.617371798E0
1.631693386E0,-5.487565994E-1,9.596766472E0,1.650908470E0
1.633697865E0,-5.295927525E-1,9.596766472E0,1.655699492E0
1.635702344E0,-5.200108886E-1,9.582393646E0,1.679654241E0
1.637706823E0,-5.248018503E-1,9.596766472E0,1.679654241E0
1.639711302E0,-5.343837142E-1,9.620721817E0,1.670072317E0
1.641715781E0,-5.391746759E-1,9.611139297E0,1.641326547E0
1.643720261E0,-5.727114081E-1,9.611139297E0,1.602998853E0
1.645724740E0,-5.631294847E-1,9.615930557E0,1.579044104E0
1.647729219E0,-5.966661572E-1,9.635094643E0,1.579044104E0
1.649733698E0,-6.110390425E-1,9.649467468E0,1.564671278E0
1.651738177E0,-6.014571190E-1,9.649467468E0,1.526343584E0
1.653742656E0,-6.062480807E-1,9.663840294E0,1.531134605E0
1.655747136E0,-6.014571190E-1,9.668630600E0,1.564671278E0
1.657751667E0,-6.349938512E-1,9.654257774E0,1.550298333E0
1.659756198E0,-6.637395620E-1,9.683003426E0,1.569462180E0
1.661760729E0,-6.924853325E-1,9.711749077E0,1.574253201E0
1.663765261E0,-7.308129668E-1,9.716540337E0,1.545507431E0
1.665769792E0,-7.739315629E-1,9.711749077E0,1.555089355E0
1.667774323E0,-7.691406608E-1,9.711749077E0,1.579044104E0
1.669778854E0,-7.835134864E-1,9.711749077E0,1.574253201E0
1.671783386E0,-8.122592568E-1,9.721331596E0,1.540716410E0
1.673787917E0,-7.739315629E-1,9.687794685E0,1.579044104E0
1.675792448E0,-7.930954099E-1,9.692585945E0,1.579044104E0
1.677796979E0,-7.835134864E-1,9.687794685E0,1.583835125E0
1.679801511E0,-7.930954099E-1,9.702167511E0,1.602998853E0
1.681806042E0,-7.883044481E-1,9.711749077E0,1.588626027E0
1.683810573E0,-8.026773334E-1,9.716540337E0,1.602998853E0
1.685815104E0,-7.739315629E-1,9.687794685E0,1.579044104E0
1.687819636E0,-7.595587373E-1,9.692585945E0,1.602998853E0
1.689824167E0,-7.787225246E-1,9.716540337E0,1.607789874E0
1.691828698E0,-7.739315629E-1,9.721331596E0,1.655699492E0
1.693833229E0,-7.691406608E-1,9.730913162E0,1.650908470E0
1.695837761E0,-7.835134864E-1,9.721331596E0,1.670072317E0
1.697842292E0,-7.595587373E-1,9.716540337E0,1.698818088E0
1.699846823E0,-7.643496990E-1,9.716540337E0,1.694027066E0
1.701851354E0,-7.787225246E-1,9.716540337E0,1.703608990E0
1.703855886E0,-7.835134864E-1,9.726122856E0,1.708400011E0
1.705860417E0,-7.691406608E-1,9.697376251E0,1.737145662E0
1.707864948E0,-7.643496990E-1,9.692585945E0,1.737145662E0
1.709869479E0,-7.643496990E-1,9.687794685E0,1.770682454E0
1.711874011E0,-7.835134864E-1,9.683003426E0,1.751518607E0
1.713878542E0,-7.739315629E-1,9.711749077E0,1.751518607E0
1.715883073E0,-7.883044481E-1,9.716540337E0,1.746727586E0
1.717887604E0,-7.835134864E-1,9.726122856E0,1.761100531E0
1.719892084E0,-7.978863716E-1,9.730913162E0,1.780264378E0
1.721896563E0,-7.739315629E-1,9.745285988E0,1.842546701E0
1.723901042E0,-7.787225246E-1,9.740495682E0,1.866501570E0
1.725905521E0,-7.835134864E-1,9.750077248E0,1.876083493E0
1.727910000E0,-8.074682951E-1,9.759658813E0,1.880874395E0
1.729914479E0,-8.218411803E-1,9.759658813E0,1.852128625E0
1.731918959E0,-8.218411803E-1,9.783614159E0,1.847337723E0
1.733923438E0,-8.362140059E-1,9.778822899E0,1.866501570E0
1.735927917E0,-8.649597764E-1,9.783614159E0,1.871292472E0
1.737932396E0,-8.745416999E-1,9.793195724E0,1.876083493E0
1.739936875E0,-8.793326616E-1,9.797986984E0,1.880874395E0
1.741941354E0,-9.032874107E-1,9.807568550E0,1.832964897E0
1.743945834E0,-9.176602960E-1,9.850687027E0,1.794637203E0
1.745950313E0,-9.272422194E-1,9.860269547E0,1.737145662E0
1.747954792E0,-9.511970282E-1,9.879432678E0,1.727563739E0
1.749959271E0,-9.655698538E-1,9.874642372E0,1.674863219E0
1.751963750E0,-9.991065264E-1,9.884223938E0,1.674863219E0
1.753968229E0,-1.018270373E0,9.898596764E0,1.665281296E0
1.755972709E0,-1.032643318E0,9.932133675E0,1.674863219E0
1.757977188E0,-1.066179991E0,9.946506500E0,1.646117568E0
1.759981667E0,-1.109298587E0,9.965670586E0,1.588626027E0
1.761986146E0,-1.104507685E0,9.975252151E0,1.555089355E0
1.763990625E0,-1.128462434E0,9.994416237E0,1.569462180E0
1.765995104E0,-1.157208204E0,1.004711628E1,1.540716410E0
1.767999584E0,-1.176371932E0,1.006148911E1,1.535925508E0
1.770004063E0,-1.190744877E0,1.005669880E1,1.521552682E0
1.772008542E0,-1.181162953E0,1.004232597E1,1.497597814E0
1.774013021E0,-1.176371932E0,1.004232597E1,1.488015890E0
1.776017500E0,-1.171581030E0,1.002795315E1,1.459270239E0
1.778021979E0,-1.166790128E0,9.984833717E0,1.459270239E0
1.780026459E0,-1.142835259E0,9.960879326E0,1.435315371E0
1.782030938E0,-1.123671412E0,9.898596764E0,1.420942545E0
1.784035417E0,-1.099716663E0,9.869851112E0,1.373032928E0
1.786039896E0,-1.090134740E0,9.826732635E0,1.373032928E0
1.788044375E0,-1.070970893E0,9.788404465E0,1.329914331E0
1.790048854E0,-1.037434220E0,9.745285988E0,1.277213812E0
1.792053334E0,-1.018270373E0,9.721331596E0,1.286795735E0
1.794057813E0,-9.895246029E-1,9.678213120E0,1.282004833E0
1.796062292E0,-9.751517773E-1,9.668630600E0,1.282004833E0
1.798066771E0,-9.464060068E-1,9.615930557E0,1.253259063E0
1.800071250E0,-9.607789516E-1,9.587184906E0,1.262840986E0
1.802075729E0,-9.655698538E-1,9.563229561E0,1.253259063E0
1.804080209E0,-9.607789516E-1,9.524902344E0,1.258049965E0
1.806084688E0,-9.464060068E-1,9.491365433E0,1.248468041E0
1.808089167E0,-9.607789516E-1,9.481783867E0,1.224513292E0
1.810093646E0,-9.895246029E-1,9.448246956E0,1.224513292E0
1.812098125E0,-1.042225242E0,9.429082870E0,1.224513292E0
1.814102604E0,-1.056598067E0,9.400337219E0,1.205349445E0
1.816107084E0,-1.080552816E0,9.395545959E0,1.200558424E0
1.818111563E0,-1.123671412E0,9.371591568E0,1.181394696E0
1.820116042E0,-1.161999106E0,9.385964394E0,1.195767522E0
1.822120521E0,-1.205117702E0,9.357218742E0,1.229304194E0
1.824125000E0,-1.229072571E0,9.362010002E0,1.214931369E0
1.826129479E0,-1.286563993E0,9.371591568E0,1.219722271E0
1.828133959E0,-1.344055533E0,9.362010002E0,1.248468041E0
1.830138438E0,-1.372801185E0,9.366800308E0,1.291586637E0
1.832142917E0,-1.420710802E0,9.357218742E0,1.310750484E0
1.834147396E0,-1.454247475E0,9.352427483E0,1.329914331E0
1.836151875E0,-1.511739016E0,9.376382828E0,1.377823949E0
1.838156354E0,-1.535693765E0,9.381173134E0,1.416151524E0
1.840160834E0,-1.559648514E0,9.390755653E0,1.416151524E0
1.842165313E0,-1.607558131E0,9.400337219E0,1.459270239E0
1.844169792E0,-1.626721978E0,9.390755653E0,1.483224988E0
1.846174271E0,-1.636303902E0,9.390755653E0,1.516761661E0
1.848178750E0,-1.655467749E0,9.424292564E0,1.555089355E0
1.850183229E0,-1.660258651E0,9.414710045E0,1.593417048E0
1.852187709E0,-1.665049553E0,9.429082870E0,1.612580776E0
1.854192188E0,-1.684213400E0,9.424292564E0,1.636535645E0
1.856196667E0,-1.708168268E0,9.443455696E0,1.655699492E0
1.858201146E0,-1.679422498E0,9.443455696E0,1.670072317E0
1.860205625E0,-1.684213400E0,9.453038216E0,1.684445143E0
1.862210104E0,-1.689004421E0,9.476992607E0,1.698818088E0
1.864214584E0,-1.669840574E0,9.476992607E0,1.717981935E0
1.866219063E0,-1.645885825E0,9.486574173E0,1.713190913E0
1.868223542E0,-1.655467749E0,9.505738258E0,1.713190913E0
1.870228021E0,-1.641094804E0,9.500946999E0,1.698818088E0
1.872232500E0,-1.621930957E0,9.524902344E0,1.689236164E0
1.874236979E0,-1.631512880E0,9.544066429E0,1.674863219E0
1.876241459E0,-1.607558131E0,9.553647995E0,1.670072317E0
1.878245938E0,-1.578812361E0,9.548856735E0,1.665281296E0
1.880250417E0,-1.574021459E0,9.553647995E0,1.641326547E0
1.882254896E0,-1.545275688E0,9.558439255E0,1.641326547E0
1.884259375E0,-1.540484667E0,9.577602386E0,1.622162700E0
1.886263854E0,-1.506947994E0,9.587184906E0,1.588626027E0
1.888268334E0,-1.497366071E0,9.577602386E0,1.593417048E0
1.890272813E0,-1.478202343E0,9.582393646E0,1.550298333E0
1.892277292E0,-1.468620420E0,9.587184906E0,1.555089355E0
1.894281771E0,-1.444665551E0,9.582393646E0,1.526343584E0
1.896286250E0,-1.444665551E0,9.577602386E0,1.526343584E0
1.898290729E0,-1.435083628E0,9.568020821E0,1.507179737E0
1.900295209E0,-1.396756053E0,9.572812080E0,1.502388835E0
1.902299688E0,-1.401546955E0,9.587184906E0,1.468852162E0
1.904304167E0,-1.363219261E0,9.591975212E0,1.483224988E0
1.906308646E0,-1.348846436E0,9.596766472E0,1.483224988E0
1.908313125E0,-1.315309763E0,9.587184906E0,1.464061141E0
1.910317604E0,-1.315309763E0,9.577602386E0,1.449688315E0
1.912322084E0,-1.296145916E0,9.606348038E0,1.440106392E0
1.914326563E0,-1.291355014E0,9.601557732E0,1.425733447E0
1.916331042E0,-1.267400146E0,9.568020821E0,1.396987796E0
1.918335521E0,-1.238654375E0,9.577602386E0,1.368242025E0
1.920340000E0,-1.209908724E0,9.558439255E0,1.358660102E0
1.922344479E0,-1.185953856E0,9.553647995E0,1.349078178E0
1.924348959E0,-1.190744877E0,9.534483910E0,1.329914331E0
1.926353438E0,-1.152417183E0,9.520111084E0,1.320332408E0
1.928357917E0,-1.128462434E0,9.520111084E0,1.320332408E0
1.930362396E0,-1.090134740E0,9.510529518E0,1.315541506E0
1.932366875E0,-1.085343838E0,9.500946999E0,1.329914331E0
1.934371354E0,-1.061388969E0,9.500946999E0,1.329914331E0
1.936375834E0,-1.008688450E0,9.500946999E0,1.320332408E0
1.938380313E0,-1.003897548E0,9.481783867E0,1.315541506E0
1.940384792E0,-9.895246029E-1,9.476992607E0,1.320332408E0
1.942389271E0,-9.703608751E-1,9.467411041E0,1.310750484E0
1.944393750E0,-9.368241429E-1,9.491365433E0,1.305959582E0
1.946398229E0,-9.032874107E-1,9.481783867E0,1.305959582E0
1.948402709E0,-8.937055469E-1,9.472201347E0,1.305959582E0
1.950407188E0,-8.889145851E-1,9.481783867E0,1.286795735E0
1.952411667E0,-8.745416999E-1,9.500946999E0,1.291586637E0
1.954416146E0,-8.649597764E-1,9.491365433E0,1.286795735E0
1.956420625E0,-8.601688147E-1,9.510529518E0,1.277213812E0
1.958425156E0,-8.553778529E-1,9.491365433E0,1.262840986E0
1.960429688E0,-8.218411803E-1,9.500946999E0,1.277213812E0
1.962434219E0,-8.266321421E-1,9.496156693E0,1.291586637E0
1.964438750E0,-8.266321421E-1,9.491365433E0,1.286795735E0
1.966443281E0,-8.122592568E-1,9.505738258E0,1.301168561E0
1.968447813E0,-8.026773334E-1,9.510529518E0,1.296377659E0
1.970452344E0,-8.122592568E-1,9.520111084E0,1.286795735E0
1.972456875E0,-8.122592568E-1,9.529693604E0,1.310750484E0
1.974461406E0,-8.266321421E-1,9.558439255E0,1.296377659E0
1.976465938E0,-7.978863716E-1,9.553647995E0,1.315541506E0
1.978470469E0,-8.026773334E-1,9.591975212E0,1.315541506E0
1.980475000E0,-7.883044481E-1,9.601557732E0,1.320332408E0
1.982479531E0,-8.266321421E-1,9.620721817E0,1.339496255E0
1.984484063E0,-8.170502186E-1,9.630303383E0,1.329914331E0
1.986488594E0,-7.978863716E-1,9.649467468E0,1.349078178E0
1.988493125E0,-7.978863716E-1,9.668630600E0,1.353869081E0
1.990497656E0,-7.930954099E-1,9.702167511E0,1.392196774E0
1.992502188E0,-8.026773334E-1,9.683003426E0,1.382614851E0
1.994506719E0,-7.978863716E-1,9.716540337E0,1.406569719E0
1.996511250E0,-7.691406608E-1,9.726122856E0,1.425733447E0
1.998515781E0,-7.691406608E-1,9.726122856E0,1.454479218E0
2.000520313E0,-7.595587373E-1,9.730913162E0,1.449688315E0
2.002524844E0,-7.787225246E-1,9.740495682E0,1.473643064E0
2.004529375E0,-7.499768138E-1,9.759658813E0,1.478433967E0
2.006533906E0,-7.451858521E-1,9.754868507E0,1.497597814E0
2.008538438E0,-7.308129668E-1,9.769241333E0,1.507179737E0
2.010542969E0,-7.116491795E-1,9.783614159E0,1.521552682E0
2.012547500E0,-7.164400816E-1,9.793195724E0,1.545507431E0
2.014552031E0,-6.876943707E-1,9.797986984E0,1.555089355E0
2.016556563E0,-6.972762942E-1,9.836314201E0,1.559880257E0
2.018561094E0,-6.685305238E-1,9.841105461E0,1.564671278E0
2.020565573E0,-6.589486003E-1,9.860269547E0,1.550298333E0
2.022570052E0,-6.302028894E-1,9.874642372E0,1.550298333E0
2.024574531E0,-6.397848129E-1,9.922552109E0,1.555089355E0
2.026579011E0,-6.397848129E-1,9.936924934E0,1.545507431E0
2.028583490E0,-6.014571190E-1,9.965670586E0,1.535925508E0
2.030587969E0,-5.918751955E-1,9.975252151E0,1.535925508E0
2.032592448E0,-6.110390425E-1,9.984833717E0,1.531134605E0
2.034596927E0,-5.775023699E-1,1.000878906E1,1.535925508E0
2.036601406E0,-5.583385229E-1,1.001837063E1,1.511970758E0
2.038605886E0,-5.391746759E-1,1.003274345E1,1.540716410E0
2.040610365E0,-5.200108886E-1,1.003753471E1,1.521552682E0
2.042614844E0,-5.056380033E-1,1.005190754E1,1.497597814E0
2.044619323E0,-4.960560799E-1,1.005669880E1,1.497597814E0
2.046623802E0,-4.721012712E-1,1.005190754E1,1.516761661E0
2.048628281E0,-4.577284455E-1,1.007586193E1,1.502388835E0
2.050632761E0,-4.433555603E-1,1.004232597E1,1.488015890E0
2.052637240E0,-4.337736368E-1,1.003753471E1,1.492806911E0
2.054641719E0,-4.050278664E-1,1.002795315E1,1.521552682E0
2.056646198E0,-3.810731173E-1,1.002795315E1,1.511970758E0
2.058650677E0,-3.427454233E-1,1.002795315E1,1.516761661E0
2.060655156E0,-3.619092703E-1,9.999206543E0,1.511970758E0
2.062659636E0,-3.331634998E-1,9.989624977E0,1.497597814E0
2.064664115E0,-3.235816360E-1,9.980043411E0,1.502388835E0
2.066668594E0,-3.427454233E-1,9.975252151E0,1.483224988E0
2.068673073E0,-3.379544616E-1,9.951297760E0,1.478433967E0
2.070677552E0,-3.475363851E-1,9.932133675E0,1.468852162E0
2.072682031E0,-3.283725977E-1,9.927342415E0,1.449688315E0
2.074686511E0,-3.331634998E-1,9.917760849E0,1.449688315E0
2.076690990E0,-3.379544616E-1,9.889015198E0,1.440106392E0
2.078695469E0,-3.139997125E-1,9.869851112E0,1.454479218E0
2.080699948E0,-2.996268272E-1,9.860269547E0,1.444897294E0
2.082704427E0,-2.948358655E-1,9.845896721E0,1.440106392E0
2.084708906E0,-2.900449038E-1,9.855478287E0,1.401778698E0
2.086713386E0,-2.948358655E-1,9.817150116E0,1.373032928E0
2.088717865E0,-3.187906742E-1,9.836314201E0,1.344287276E0
2.090722344E0,-3.283725977E-1,9.841105461E0,1.320332408E0
2.092726823E0,-3.379544616E-1,9.841105461E0,1.296377659E0
2.094731302E0,-3.571183085E-1,9.845896721E0,1.301168561E0
2.096735781E0,-3.762821555E-1,9.865059853E0,1.282004833E0
2.098740261E0,-3.762821555E-1,9.850687027E0,1.267631888E0
2.100744740E0,-4.146097898E-1,9.850687027E0,1.267631888E0
2.102749219E0,-4.146097898E-1,9.831523895E0,1.258049965E0
2.104753698E0,-4.146097898E-1,9.845896721E0,1.248468041E0
2.106758177E0,-4.433555603E-1,9.826732635E0,1.262840986E0
2.108762656E0,-4.721012712E-1,9.807568550E0,1.234095216E0
2.110767136E0,-4.721012712E-1,9.807568550E0,1.243677139E0
2.112771615E0,-4.864741564E-1,9.783614159E0,1.248468041E0
2.114776094E0,-5.152199268E-1,9.788404465E0,1.262840986E0
2.116780573E0,-5.391746759E-1,9.769241333E0,1.253259063E0
2.118785052E0,-5.487565994E-1,9.754868507E0,1.282004833E0
2.120789531E0,-5.631294847E-1,9.754868507E0,1.286795735E0
2.122794011E0,-5.631294847E-1,9.740495682E0,1.301168561E0
2.124798490E0,-5.727114081E-1,9.730913162E0,1.310750484E0
2.126802969E0,-5.822933316E-1,9.721331596E0,1.325123429E0
2.128807448E0,-6.158300042E-1,9.721331596E0,1.329914331E0
2.130811927E0,-6.254119277E-1,9.711749077E0,1.349078178E0
2.132816406E0,-6.302028894E-1,9.711749077E0,1.358660102E0
2.134820886E0,-6.541576385E-1,9.678213120E0,1.382614851E0
2.136825365E0,-6.349938512E-1,9.702167511E0,1.387405872E0
2.138829844E0,-6.397848129E-1,9.687794685E0,1.420942545E0
2.140834323E0,-6.445757747E-1,9.692585945E0,1.440106392E0
2.142838802E0,-6.637395620E-1,9.687794685E0,1.454479218E0
2.144843281E0,-6.493667364E-1,9.683003426E0,1.473643064E0
2.146847761E0,-6.445757747E-1,9.683003426E0,1.492806911E0
2.148852240E0,-6.589486003E-1,9.673421860E0,1.507179737E0
2.150856719E0,-6.541576385E-1,9.673421860E0,1.516761661E0
2.152861198E0,-6.397848129E-1,9.668630600E0,1.555089355E0
2.154865677E0,-6.445757747E-1,9.663840294E0,1.569462180E0
2.156870156E0,-6.445757747E-1,9.654257774E0,1.574253201E0
2.158874636E0,-6.302028894E-1,9.668630600E0,1.579044104E0
2.160879115E0,-6.110390425E-1,9.673421860E0,1.617371798E0
2.162883594E0,-5.966661572E-1,9.668630600E0,1.622162700E0
2.164888073E0,-5.870842934E-1,9.668630600E0,1.646117568E0
2.166892552E0,-5.679204464E-1,9.678213120E0,1.646117568E0
2.168897031E0,-5.343837142E-1,9.654257774E0,1.650908470E0
2.170901511E0,-5.343837142E-1,9.668630600E0,1.655699492E0
2.172905990E0,-5.200108886E-1,9.659049034E0,1.660490394E0
2.174910469E0,-4.816831946E-1,9.673421860E0,1.670072317E0
2.176914948E0,-4.673103094E-1,9.663840294E0,1.670072317E0
2.178919427E0,-4.289826751E-1,9.663840294E0,1.670072317E0
2.180923906E0,-3.954459429E-1,9.659049034E0,1.670072317E0
2.182928386E0,-3.427454233E-1,9.654257774E0,1.689236164E0
2.184932865E0,-2.900449038E-1,9.649467468E0,1.689236164E0
2.186937344E0,-2.612991929E-1,9.639884949E0,1.708400011E0
2.188941823E0,-2.181805521E-1,9.630303383E0,1.674863219E0
2.190946302E0,-1.511071622E-1,9.611139297E0,1.694027066E0
2.192950781E0,-1.127794981E-1,9.601557732E0,1.698818088E0
2.194955261E0,-7.445184886E-2,9.611139297E0,1.698818088E0
2.196959740E0,6.994426250E-3,9.568020821E0,1.665281296E0
2.198964219E0,4.532208294E-2,9.582393646E0,1.665281296E0
2.200968698E0,1.123954803E-1,9.558439255E0,1.636535645E0
2.202973177E0,1.555140913E-1,9.568020821E0,1.650908470E0
2.204977656E0,2.273784578E-1,9.568020821E0,1.607789874E0
2.206982136E0,2.896609008E-1,9.553647995E0,1.583835125E0
2.208986615E0,3.711071610E-1,9.568020821E0,1.550298333E0
2.210991094E0,4.333896041E-1,9.587184906E0,1.521552682E0
2.212995573E0,4.956720471E-1,9.591975212E0,1.516761661E0
2.215000052E0,5.435816050E-1,9.596766472E0,1.468852162E0
2.217004531E0,5.962821245E-1,9.606348038E0,1.449688315E0
2.219009011E0,6.250278950E-1,9.611139297E0,1.440106392E0
2.221013490E0,7.016831636E-1,9.615930557E0,1.411360621E0
2.223017969E0,7.304289341E-1,9.620721817E0,1.406569719E0
2.225022448E0,7.735475302E-1,9.635094643E0,1.387405872E0
2.227026927E0,8.262480497E-1,9.654257774E0,1.382614851E0
2.229031406E0,8.502028584E-1,9.639884949E0,1.401778698E0
2.231035886E0,8.837395310E-1,9.659049034E0,1.401778698E0
2.233040365E0,9.124853015E-1,9.644676208E0,1.430524468E0
2.235044844E0,9.508129358E-1,9.654257774E0,1.454479218E0
2.237049323E0,9.795587063E-1,9.654257774E0,1.473643064E0
2.239053802E0,1.013095379E0,9.673421860E0,1.502388835E0
2.241058281E0,1.041841149E0,9.683003426E0,1.540716410E0
2.243062761E0,1.070586920E0,9.663840294E0,1.593417048E0
2.245067240E0,1.099332571E0,9.687794685E0,1.646117568E0
2.247071719E0,1.128078341E0,9.697376251E0,1.703608990E0
2.249076198E0,1.147242188E0,9.697376251E0,1.756309509E0
2.251080677E0,1.180778861E0,9.711749077E0,1.794637203E0
2.253085156E0,1.204733729E0,9.711749077E0,1.856919646E0
2.255089636E0,1.247852325E0,9.687794685E0,1.900038242E0
2.257094167E0,1.262225151E0,9.702167511E0,1.962320685E0
2.259098698E0,1.329298615E0,9.697376251E0,2.034184933E0
2.261103229E0,1.358044267E0,9.706958771E0,2.086885452E0
2.263107761E0,1.415535808E0,9.711749077E0,2.125213146E0
2.265112292E0,1.444281578E0,9.726122856E0,2.168331861E0
2.267116823E0,1.492191076E0,9.721331596E0,2.197077513E0
2.269121354E0,1.540100694E0,9.735704422E0,2.173122644E0
2.271125886E0,1.592801213E0,9.735704422E0,2.168331861E0
2.273130417E0,1.683829427E0,9.740495682E0,2.173122644E0
2.275134948E0,1.741320848E0,9.740495682E0,2.192286491E0
2.277139479E0,1.798812389E0,9.745285988E0,2.173122644E0
2.279144011E0,1.846721888E0,9.754868507E0,2.177913666E0
2.281148542E0,1.909004331E0,9.750077248E0,2.139585972E0
2.283153073E0,1.976077795E0,9.754868507E0,2.106049299E0
2.285157604E0,2.052733183E0,9.745285988E0,2.072512627E0
2.287162136E0,2.129388332E0,9.750077248E0,2.015021086E0
2.289166667E0,2.229998589E0,9.754868507E0,1.981484532E0
2.291171198E0,2.316235781E0,9.716540337E0,1.923992991E0
2.293175729E0,2.416845798E0,9.706958771E0,1.895247340E0
2.295180261E0,2.512665033E0,9.692585945E0,1.837755799E0
2.297184792E0,2.589320183E0,9.683003426E0,1.770682454E0
2.299189323E0,2.665975571E0,9.683003426E0,1.703608990E0
2.301193854E0,2.747421980E0,9.654257774E0,1.622162700E0
2.303198386E0,2.814495325E0,9.649467468E0,1.545507431E0
2.305202917E0,2.900732517E0,9.635094643E0,1.464061141E0
2.307207448E0,2.982178688E0,9.639884949E0,1.401778698E0
2.309211979E0,3.058834076E0,9.620721817E0,1.353869081E0
2.311216511E0,3.092370749E0,9.620721817E0,1.305959582E0
2.313221042E0,3.159444094E0,9.606348038E0,1.248468041E0
2.315225573E0,3.231308460E0,9.625512123E0,1.200558424E0
2.317230104E0,3.245681286E0,9.620721817E0,1.171812773E0
2.319234584E0,3.288800001E0,9.615930557E0,1.133485079E0
2.321239063E0,3.307963848E0,9.659049034E0,1.104739308E0
2.323243542E0,3.293591022E0,9.663840294E0,1.052038789E0
2.325248021E0,3.307963848E0,9.663840294E0,1.047247887E0
2.327252500E0,3.322336674E0,9.687794685E0,1.023293018E0
2.329256979E0,3.298382044E0,9.721331596E0,1.023293018E0
2.331261459E0,3.264845133E0,9.740495682E0,9.753834605E-1
2.333265938E0,3.255263329E0,9.774031639E0,9.514287114E-1
2.335270417E0,3.202562809E0,9.826732635E0,9.226829410E-1
2.337274896E0,3.154653311E0,9.860269547E0,9.035190940E-1
2.339279375E0,3.106743574E0,9.912969589E0,9.178919792E-1
2.341283854E0,3.039670229E0,9.956088066E0,9.274739027E-1
2.343288334E0,2.953433037E0,1.000878906E1,9.274739027E-1
2.345292813E0,2.876777649E0,1.003753471E1,9.178919792E-1
2.347297292E0,2.780958652E0,1.007586193E1,9.131010175E-1
2.349301771E0,2.699512243E0,1.012377167E1,9.514287114E-1
2.351306250E0,2.598902225E0,1.016689014E1,9.562196136E-1
2.353310729E0,2.507874012E0,1.021959114E1,9.801744223E-1
2.355315209E0,2.397681952E0,1.026270962E1,9.993382692E-1
2.357319688E0,2.311444759E0,1.030103683E1,1.018502116E0
2.359324167E0,2.215625525E0,1.037290192E1,1.037665963E0
2.361328646E0,2.115015507E0,1.039206505E1,1.075993538E0
2.363333125E0,2.009614468E0,1.044476604E1,1.075993538E0
2.365337604E0,1.942541122E0,1.049746609E1,1.095157385E0
2.367342084E0,1.846721888E0,1.054058552E1,1.128694177E0
2.369346563E0,1.736529946E0,1.058849430E1,1.147857904E0
2.371351042E0,1.664665580E0,1.062682247E1,1.157439828E0
2.373355521E0,1.578428388E0,1.066514969E1,1.186185598E0
2.375360000E0,1.477818251E0,1.067952251E1,1.229304194E0
2.377364479E0,1.420326710E0,1.072743225E1,1.286795735E0
2.379368959E0,1.329298615E0,1.073701477E1,1.305959582E0
2.381373438E0,1.233479381E0,1.076096916E1,1.329914331E0
2.383377917E0,1.180778861E0,1.076096916E1,1.353869081E0
2.385382396E0,1.080168843E0,1.074659634E1,1.373032928E0
2.387386875E0,1.027468324E0,1.075138760E1,1.406569719E0
2.389391354E0,9.556038976E-1,1.074659634E1,1.435315371E0
2.391395834E0,8.789486289E-1,1.073222351E1,1.449688315E0
2.393400313E0,8.166661859E-1,1.073222351E1,1.473643064E0
2.395404792E0,7.400108576E-1,1.071305943E1,1.478433967E0
2.397409271E0,6.729374528E-1,1.068910503E1,1.516761661E0
2.399413750E0,6.154459715E-1,1.067473221E1,1.531134605E0
2.401418229E0,5.531635284E-1,1.067473221E1,1.559880257E0
2.403422709E0,5.100449324E-1,1.067952251E1,1.588626027E0
2.405427188E0,4.669263363E-1,1.065077686E1,1.607789874E0
2.407431667E0,3.998529315E-1,1.063640404E1,1.617371798E0
2.409436146E0,3.806890845E-1,1.064119530E1,1.617371798E0
2.411440625E0,3.423614502E-1,1.061244965E1,1.631744623E0
2.413445104E0,2.944518328E-1,1.060765839E1,1.650908470E0
2.415449584E0,2.561241984E-1,1.059807682E1,1.674863219E0
2.417454063E0,2.177965343E-1,1.058849430E1,1.679654241E0
2.419458542E0,1.938417554E-1,1.055974865E1,1.670072317E0
2.421463021E0,1.650960147E-1,1.052621269E1,1.684445143E0
2.423467500E0,1.507231444E-1,1.049746609E1,1.674863219E0
2.425471979E0,1.411412358E-1,1.045434761E1,1.684445143E0
2.427476459E0,1.123954803E-1,1.042560196E1,1.689236164E0
2.429480938E0,1.123954803E-1,1.038248348E1,1.698818088E0
2.431485417E0,1.028135717E-1,1.033936501E1,1.698818088E0
2.433489896E0,8.364973962E-2,1.030582809E1,1.717981935E0
2.435494375E0,7.406783104E-2,1.023875523E1,1.708400011E0
2.437498854E0,3.574017063E-2,1.021959114E1,1.741936684E0
2.439503334E0,2.136730030E-2,1.018126297E1,1.785055280E0
2.441507813E0,2.136730030E-2,1.014772701E1,1.799428105E0
2.443512292E0,2.203471959E-3,1.013335419E1,1.828173876E0
2.445516771E0,-2.175131440E-2,1.009502602E1,1.876083493E0
2.447521250E0,-4.570610076E-2,1.007107162E1,1.890456319E0
2.449525729E0,-7.924279571E-2,1.008544445E1,1.880874395E0
2.451530209E0,-1.175704598E-1,1.005190754E1,1.890456319E0
2.453534688E0,-1.079885364E-1,1.000399780E1,1.909620166E0
2.455539167E0,-1.175704598E-1,1.000399780E1,1.919202089E0
2.457543646E0,-1.367342919E-1,9.980043411E0,1.943156838E0
2.459548125E0,-1.463162005E-1,9.951297760E0,1.947947860E0
2.461552604E0,-1.558981091E-1,9.927342415E0,1.957529783E0
2.463557084E0,-1.702709794E-1,9.912969589E0,2.010230303E0
2.465561563E0,-1.750619411E-1,9.884223938E0,2.043766975E0
2.467566042E0,-2.038076967E-1,9.865059853E0,2.086885452E0
2.469570521E0,-1.894348115E-1,9.826732635E0,2.120422125E0
2.471575000E0,-2.038076967E-1,9.793195724E0,2.144376993E0
2.473579479E0,-1.990167350E-1,9.769241333E0,2.163540840E0
2.475583959E0,-2.133895904E-1,9.745285988E0,2.163540840E0
2.477588438E0,-2.133895904E-1,9.721331596E0,2.173122644E0
2.479592917E0,-1.846438497E-1,9.683003426E0,2.216241360E0
2.481597396E0,-1.702709794E-1,9.654257774E0,2.268941879E0
2.483601875E0,-1.702709794E-1,9.630303383E0,2.283314705E0
2.485606354E0,-1.415252388E-1,9.611139297E0,2.302478552E0
2.487610834E0,-1.319433302E-1,9.587184906E0,2.340806246E0
2.489615313E0,-1.223614067E-1,9.587184906E0,2.364761114E0
2.491619792E0,-8.882471919E-2,9.539275169E0,2.403088808E0
2.493624271E0,-6.486992538E-2,9.553647995E0,2.412670612E0
2.495628750E0,-3.612418473E-2,9.505738258E0,2.450998306E0
2.497633229E0,6.994426250E-3,9.491365433E0,2.455789328E0
2.499637709E0,3.574017063E-2,9.453038216E0,2.494117022E0
2.501642188E0,7.406783104E-2,9.443455696E0,2.484534979E0
2.503646667E0,1.028135717E-1,9.419501305E0,2.498907804E0
2.505651146E0,1.507231444E-1,9.395545959E0,2.518071651E0
2.507655625E0,2.225874960E-1,9.376382828E0,2.537235498E0
2.509660104E0,2.465422899E-1,9.342845917E0,2.542026520E0
2.511664584E0,2.992427945E-1,9.314100266E0,2.551608324E0
2.513669063E0,3.471523523E-1,9.304517746E0,2.551608324E0
2.515673542E0,3.950619698E-1,9.266190529E0,2.537235498E0
2.517678021E0,4.381805658E-1,9.237444878E0,2.537235498E0
2.519682500E0,4.812991619E-1,9.227863312E0,2.522862673E0
2.521686979E0,5.148358941E-1,9.208699226E0,2.513280869E0
2.523691459E0,5.771182775E-1,9.184743881E0,2.484534979E0
2.525695938E0,6.250278950E-1,9.160789490E0,2.489326000E0
2.527700417E0,6.777284145E-1,9.146416664E0,2.479743958E0
2.529704896E0,7.352198958E-1,9.136835098E0,2.455789328E0
2.531709375E0,8.118752241E-1,9.093715668E0,2.436625481E0
2.533713854E0,8.502028584E-1,9.074552536E0,2.403088808E0
2.535718334E0,8.885304928E-1,9.041015625E0,2.369552135E0
2.537722813E0,9.508129358E-1,9.017060280E0,2.359970093E0
2.539727292E0,1.013095379E0,8.997897148E0,2.321642399E0
2.541731771E0,1.051423073E0,8.949987411E0,2.307269573E0
2.543736250E0,1.094541669E0,8.940405846E0,2.288105726E0
2.545740729E0,1.166406035E0,8.911659241E0,2.292896748E0
2.547745209E0,1.223897457E0,8.878123283E0,2.297687769E0
2.549749688E0,1.276598096E0,8.854167938E0,2.302478552E0
2.551754167E0,1.310134768E0,8.844586372E0,2.326433420E0
2.553758698E0,1.391581059E0,8.815840721E0,2.307269573E0
2.555763229E0,1.439490557E0,8.806258202E0,2.307269573E0
2.557767761E0,1.444281578E0,8.801467896E0,2.283314705E0
2.559772292E0,1.516145945E0,8.791885376E0,2.283314705E0
2.561776823E0,1.559264541E0,8.772722244E0,2.278523922E0
2.563781354E0,1.611965060E0,8.782303810E0,2.316851616E0
2.565785886E0,1.659874558E0,8.753558159E0,2.331224442E0
2.567790417E0,1.707784176E0,8.763139725E0,2.331224442E0
2.569794948E0,1.712575078E0,8.777512550E0,2.355179071E0
2.571799479E0,1.736529946E0,8.734394073E0,2.364761114E0
2.573804011E0,1.765275717E0,8.720021248E0,2.379133940E0
2.575808542E0,1.813185215E0,8.710439682E0,2.388715982E0
2.577813073E0,1.817976236E0,8.705648422E0,2.412670612E0
2.579817604E0,1.846721888E0,8.672111511E0,2.446207285E0
2.581822136E0,1.856303811E0,8.652948380E0,2.465371132E0
2.583826667E0,1.846721888E0,8.633784294E0,2.503698826E0
2.585831198E0,1.827558160E0,8.590665817E0,2.498907804E0
2.587835729E0,1.841930985E0,8.542756081E0,2.508489847E0
2.589840261E0,1.865885735E0,8.494846344E0,2.522862673E0
2.591844792E0,1.832349062E0,8.451727867E0,2.542026520E0
2.593849323E0,1.846721888E0,8.375072479E0,2.565981388E0
2.595853854E0,1.846721888E0,8.312789917E0,2.575563192E0
2.597858386E0,1.837139964E0,8.236134529E0,2.594727039E0
2.599862917E0,1.837139964E0,8.183434486E0,2.623472691E0
2.601867448E0,1.817976236E0,8.121151924E0,2.676173210E0
2.603871979E0,1.794021368E0,8.063660622E0,2.719291925E0
2.605876511E0,1.798812389E0,7.982213974E0,2.748037577E0
2.607881042E0,1.755693793E0,7.943886280E0,2.776783466E0
2.609885573E0,1.770066619E0,7.876812935E0,2.810320139E0
2.611890104E0,1.746111870E0,7.828903198E0,2.872602463E0
2.613894636E0,1.726948023E0,7.771411896E0,2.910930157E0
2.615899115E0,1.698202252E0,7.752248287E0,2.954048872E0
2.617903594E0,1.669456482E0,7.670801640E0,2.968421698E0
2.619908073E0,1.655083656E0,7.613310337E0,3.006749392E0
2.621912552E0,1.626337886E0,7.570191860E0,3.025913239E0
2.623917031E0,1.616755962E0,7.507909298E0,3.025913239E0
2.625921511E0,1.607174039E0,7.455208778E0,3.064240932E0
2.627925990E0,1.583219290E0,7.407299042E0,3.078613758E0
2.629930469E0,1.564055443E0,7.378553391E0,3.112150431E0
2.631934948E0,1.540100694E0,7.330643654E0,3.140896082E0
2.633939427E0,1.516145945E0,7.273152351E0,3.188805819E0
2.635943906E0,1.501773000E0,7.230033875E0,3.193596601E0
2.637948386E0,1.477818251E0,7.191706181E0,3.212760448E0
2.639952865E0,1.444281578E0,7.134214401E0,3.236715317E0
2.641957344E0,1.420326710E0,7.095887184E0,3.246297121E0
2.643961823E0,1.358044267E0,7.047977448E0,3.246297121E0
2.645966302E0,1.334089518E0,7.004858971E0,3.260669947E0
2.647970781E0,1.286179900E0,6.937785149E0,3.251088142E0
2.649975261E0,1.238270402E0,6.889875889E0,3.270251989E0
2.651979740E0,1.223897457E0,6.837175369E0,3.275043011E0
2.653984219E0,1.199942708E0,6.798847675E0,3.231924295E0
2.655988698E0,1.156824112E0,6.750937939E0,3.203178644E0
2.657993177E0,1.123287439E0,6.698237419E0,3.164850950E0
2.659997656E0,1.099332571E0,6.659909725E0,3.145687103E0
2.662002136E0,1.084959745E0,6.631164074E0,3.126523256E0
2.664006615E0,1.051423073E0,6.568881512E0,3.064240932E0
2.666011094E0,1.046632171E0,6.511390209E0,3.030704021E0
2.668015573E0,1.027468324E0,6.482644558E0,2.973212719E0
2.670020052E0,1.003513575E0,6.429944038E0,2.939676046E0
2.672024531E0,9.987225533E-1,6.367661476E0,2.891766310E0
2.674029011E0,9.939315915E-1,6.314960957E0,2.867811680E0
2.676033490E0,9.843496680E-1,6.243096828E0,2.819901943E0
2.678037969E0,9.603948593E-1,6.176023006E0,2.776783466E0
2.680042448E0,9.699767828E-1,6.094576836E0,2.733664751E0
2.682046927E0,9.460219741E-1,6.017921448E0,2.671382427E0
2.684051406E0,9.268581867E-1,5.922102451E0,2.628263712E0
2.686055886E0,9.268581867E-1,5.855029106E0,2.589936018E0
2.688060365E0,9.220672250E-1,5.783164501E0,2.518071651E0
2.690064844E0,9.029033780E-1,5.706509590E0,2.494117022E0
2.692069323E0,8.981124163E-1,5.639435768E0,2.417461634E0
2.694073802E0,8.789486289E-1,5.591526508E0,2.369552135E0
2.696078281E0,8.310390115E-1,5.524453163E0,2.302478552E0
2.698082761E0,8.310390115E-1,5.428633690E0,2.225823164E0
2.700087240E0,7.975023389E-1,5.399888039E0,2.173122644E0
2.702091719E0,7.783384919E-1,5.347187519E0,2.096467495E0
2.704096198E0,7.639656067E-1,5.318441868E0,2.053348780E0
2.706100677E0,7.208470106E-1,5.275323391E0,2.029393911E0
2.708105156E0,6.921012998E-1,5.246577740E0,1.962320685E0
2.710109636E0,6.441916823E-1,5.213040829E0,1.923992991E0
2.712114115E0,6.441916823E-1,5.198668003E0,1.900038242E0
2.714118594E0,6.106550097E-1,5.174713135E0,1.866501570E0
2.716123073E0,5.723273754E-1,5.160340309E0,1.804219127E0
2.718127552E0,5.483725667E-1,5.179503918E0,1.775473356E0
2.720132031E0,5.339996815E-1,5.174713135E0,1.737145662E0
2.722136511E0,4.717172384E-1,5.184295177E0,1.694027066E0
2.724140990E0,4.238076806E-1,5.184295177E0,1.660490394E0
2.726145469E0,4.190167189E-1,5.203458786E0,1.636535645E0
2.728149948E0,3.806890845E-1,5.227413654E0,1.602998853E0
2.730154427E0,3.471523523E-1,5.227413654E0,1.583835125E0
2.732158906E0,3.279885650E-1,5.256159306E0,1.579044104E0
2.734163386E0,2.800789773E-1,5.251368523E0,1.550298333E0
2.736167865E0,2.465422899E-1,5.284904957E0,1.545507431E0
2.738172344E0,1.986327171E-1,5.304069042E0,1.555089355E0
2.740176823E0,1.650960147E-1,5.313651085E0,1.564671278E0
2.742181302E0,1.555140913E-1,5.318441868E0,1.550298333E0
2.744185781E0,1.076045260E-1,5.337605476E0,1.579044104E0
2.746190261E0,7.885878533E-2,5.351978779E0,1.574253201E0
2.748194740E0,4.053112864E-2,5.375933170E0,1.607789874E0
2.750199219E0,2.136730030E-2,5.380724430E0,1.622162700E0
2.752203698E0,-1.696036011E-2,5.409470081E0,1.636535645E0
2.754208177E0,-2.175131440E-2,5.433424950E0,1.655699492E0
2.756212656E0,-5.049705505E-2,5.443006992E0,1.665281296E0
2.758217136E0,-6.007897109E-2,5.466961384E0,1.674863219E0
2.760221615E0,-7.924279571E-2,5.529243946E0,1.689236164E0
2.762226094E0,-1.079885364E-1,5.567571640E0,1.698818088E0
2.764230573E0,-1.079885364E-1,5.615481377E0,1.674863219E0
2.766235052E0,-1.319433302E-1,5.663390636E0,1.674863219E0
2.768239531E0,-1.367342919E-1,5.725673199E0,1.665281296E0
2.770244011E0,-1.271523684E-1,5.773582935E0,1.612580776E0
2.772248490E0,-1.750619411E-1,5.831074238E0,1.607789874E0
2.774252969E0,-1.654800326E-1,5.917311668E0,1.583835125E0
2.776257448E0,-1.415252388E-1,5.974802971E0,1.574253201E0
2.778261927E0,-1.798529029E-1,6.032294273E0,1.559880257E0
2.780266406E0,-1.654800326E-1,6.123322487E0,1.545507431E0
2.782270886E0,-1.702709794E-1,6.185605049E0,1.507179737E0
2.784275365E0,-1.463162005E-1,6.247887611E0,1.492806911E0
2.786279844E0,-1.271523684E-1,6.314960957E0,1.459270239E0
2.788284323E0,-1.415252388E-1,6.396407127E0,1.430524468E0
2.790288802E0,-9.361566603E-2,6.449107647E0,1.416151524E0
2.792293281E0,-7.445184886E-2,6.506599426E0,1.368242025E0
2.794297761E0,-4.091514647E-2,6.564090729E0,1.334705353E0
2.796302240E0,-7.378444076E-3,6.640746117E0,1.286795735E0
2.798306719E0,3.094921261E-2,6.693446636E0,1.258049965E0
2.800311198E0,8.364973962E-2,6.770102024E0,1.210140347E0
2.802315677E0,1.267683506E-1,6.813220501E0,1.157439828E0
2.804320156E0,1.555140913E-1,6.837175369E0,1.128694177E0
2.806324636E0,1.746779233E-1,6.880293846E0,1.085575461E0
2.808329115E0,2.034236640E-1,6.894666672E0,1.061620712E0
2.810333594E0,2.704970837E-1,6.913830757E0,1.047247887E0
2.812338073E0,2.992427945E-1,6.894666672E0,1.008920193E0
2.814342552E0,3.663161993E-1,6.880293846E0,1.018502116E0
2.816347031E0,4.381805658E-1,6.832384109E0,1.028084040E0
2.818351511E0,5.100449324E-1,6.808429718E0,1.023293018E0
2.820355990E0,5.339996815E-1,6.746147156E0,1.018502116E0
2.822360469E0,5.675364137E-1,6.693446636E0,9.849653840E-1
2.824364948E0,5.914911628E-1,6.664700985E0,9.658015370E-1
2.826369427E0,6.058640480E-1,6.602418423E0,9.274739027E-1
2.828373906E0,6.537736058E-1,6.525763035E0,8.939371705E-1
2.830378386E0,6.873103380E-1,6.453898907E0,8.556095362E-1
2.832382865E0,7.064741254E-1,6.396407127E0,8.172819018E-1
2.834387344E0,7.543837428E-1,6.334124565E0,7.885361314E-1
2.836391823E0,7.927113771E-1,6.238305569E0,7.885361314E-1
2.838396302E0,8.118752241E-1,6.195187092E0,7.310446501E-1
2.840400781E0,8.358299732E-1,6.147277355E0,7.022989392E-1
2.842405261E0,8.262480497E-1,6.118531704E0,6.975079775E-1
2.844409792E0,8.454118967E-1,6.084994793E0,6.927170157E-1
2.846414323E0,8.310390115E-1,6.070621967E0,7.214627862E-1
2.848418854E0,8.214571476E-1,6.041876316E0,7.502084970E-1
2.850423386E0,8.262480497E-1,5.989175797E0,7.789542079E-1
2.852427917E0,7.927113771E-1,5.950848103E0,8.220728636E-1
2.854432448E0,8.118752241E-1,5.907729626E0,9.035190940E-1
2.856436979E0,7.735475302E-1,5.864611149E0,9.610105753E-1
2.858441511E0,7.352198958E-1,5.831074238E0,9.993382692E-1
2.860446042E0,7.064741254E-1,5.787955761E0,1.071202636E0
2.862450573E0,6.585645676E-1,5.759210110E0,1.133485079E0
2.864455104E0,5.914911628E-1,5.725673199E0,1.190976620E0
2.866459636E0,5.435816050E-1,5.740046024E0,1.253259063E0
2.868464167E0,5.004630089E-1,5.735255241E0,1.277213812E0
2.870468698E0,4.429715276E-1,5.725673199E0,1.344287276E0
2.872473229E0,3.567342758E-1,5.759210110E0,1.339496255E0
2.874477761E0,2.848699391E-1,5.821492195E0,1.363451004E0
2.876482292E0,2.177965343E-1,5.893356800E0,1.373032928E0
2.878486823E0,1.459321827E-1,5.993967056E0,1.425733447E0
2.880491354E0,5.490399897E-2,6.108949661E0,1.449688315E0
2.882495886E0,-2.175131440E-2,6.228723526E0,1.478433967E0
2.884500417E0,-8.882471919E-2,6.377243519E0,1.497597814E0
2.886504948E0,-1.750619411E-1,6.535345078E0,1.545507431E0
2.888509479E0,-2.565082312E-1,6.703028679E0,1.564671278E0
2.890514011E0,-3.475363851E-1,6.870711803E0,1.598207951E0
2.892518542E0,-4.433555603E-1,7.062350273E0,1.631744623E0
2.894523073E0,-5.248018503E-1,7.249197483E0,1.636535645E0
2.896527604E0,-5.966661572E-1,7.397717476E0,1.655699492E0
2.898532136E0,-6.924853325E-1,7.570191860E0,1.646117568E0
2.900536667E0,-7.451858521E-1,7.733084202E0,1.679654241E0
2.902541198E0,-8.122592568E-1,7.886394978E0,1.679654241E0
2.904545729E0,-8.601688147E-1,8.015750885E0,1.694027066E0
2.906550209E0,-9.272422194E-1,8.159479141E0,1.708400011E0
2.908554688E0,-9.272422194E-1,8.240925789E0,1.708400011E0
2.910559167E0,-9.799427986E-1,8.346326828E0,1.727563739E0
2.912563646E0,-1.032643318E0,8.461309433E0,1.741936684E0
2.914568125E0,-1.075761914E0,8.566710472E0,1.722772837E0
2.916572604E0,-1.109298587E0,8.686484337E0,1.713190913E0
2.918577084E0,-1.142835259E0,8.753558159E0,1.722772837E0
2.920581563E0,-1.157208204E0,8.844586372E0,1.722772837E0
2.922586042E0,-1.166790128E0,8.906868935E0,1.741936684E0
2.924590521E0,-1.190744877E0,8.940405846E0,1.717981935E0
2.926595000E0,-1.190744877E0,8.997897148E0,1.751518607E0
2.928599479E0,-1.205117702E0,9.050597191E0,1.751518607E0
2.930603959E0,-1.161999106E0,9.045806885E0,1.761100531E0
2.932608438E0,-1.157208204E0,9.084134102E0,1.770682454E0
2.934612917E0,-1.152417183E0,9.132043839E0,1.775473356E0
2.936617396E0,-1.118880510E0,9.127252579E0,1.818591952E0
2.938621875E0,-1.090134740E0,9.146416664E0,1.832964897E0
2.940626354E0,-1.070970893E0,9.175162315E0,1.871292472E0
2.942630834E0,-1.032643318E0,9.175162315E0,1.856919646E0
2.944635313E0,-9.895246029E-1,9.199116707E0,1.866501570E0
2.946639792E0,-9.416151047E-1,9.213489532E0,1.842546701E0
2.948644271E0,-9.080783725E-1,9.232653618E0,1.847337723E0
2.950648750E0,-8.553778529E-1,9.270981789E0,1.837755799E0
2.952653229E0,-7.978863716E-1,9.290144920E0,1.809010029E0
2.954657709E0,-7.499768138E-1,9.352427483E0,1.785055280E0
2.956662188E0,-6.733214855E-1,9.390755653E0,1.765891433E0
2.958666667E0,-6.110390425E-1,9.467411041E0,1.741936684E0
2.960671146E0,-5.679204464E-1,9.539275169E0,1.746727586E0
2.962675625E0,-4.912651181E-1,9.587184906E0,1.737145662E0
2.964680104E0,-3.906549811E-1,9.644676208E0,1.785055280E0
2.966684584E0,-2.900449038E-1,9.716540337E0,1.789846182E0
2.968689063E0,-2.421353310E-1,9.817150116E0,1.799428105E0
2.970693542E0,-1.702709794E-1,9.898596764E0,1.823382974E0
2.972698021E0,-9.840662777E-2,9.960879326E0,1.828173876E0
2.974702500E0,-1.696036011E-2,1.005190754E1,1.852128625E0
2.976706979E0,6.448591501E-2,1.010460758E1,1.890456319E0
2.978711459E0,9.323165566E-2,1.019084549E1,1.933574915E0
2.980715938E0,1.890507936E-1,1.025312805E1,1.981484532E0
2.982720417E0,2.417513281E-1,1.033457375E1,1.971902609E0
2.984724896E0,2.992427945E-1,1.038248348E1,2.010230303E0
2.986729375E0,3.231976032E-1,1.047830296E1,2.038975954E0
2.988733854E0,4.142257571E-1,1.049267578E1,2.082094669E0
2.990738334E0,4.621353745E-1,1.053100300E1,2.077303648E0
2.992742813E0,5.387906432E-1,1.057412148E1,2.134795189E0
2.994747292E0,5.435816050E-1,1.059328556E1,2.120422125E0
2.996751771E0,6.202369332E-1,1.060286713E1,2.115631342E0
2.998756250E0,6.777284145E-1,1.059807682E1,2.163540840E0
3.000760729E0,7.400108576E-1,1.059807682E1,2.197077513E0
3.002765209E0,8.022933006E-1,1.064598656E1,2.230614185E0
3.004769688E0,8.454118967E-1,1.062682247E1,2.273732901E0
3.006774167E0,9.603948593E-1,1.055495834E1,2.336015224E0
3.008778646E0,1.008304477E0,1.049746609E1,2.374342918E0
3.010783125E0,1.022677302E0,1.046393013E1,2.407879591E0
3.012787604E0,1.089750767E0,1.033457375E1,2.465371132E0
3.014792084E0,1.223897457E0,1.024354553E1,2.532444477E0
3.016796563E0,1.271807075E0,1.019563580E1,2.585144997E0
3.018801042E0,1.329298615E0,1.013335419E1,2.637845755E0
3.020805521E0,1.338880539E0,1.010939884E1,2.661800385E0
3.022810000E0,1.391581059E0,1.004711628E1,2.695337057E0
3.024814479E0,1.477818251E0,9.980043411E0,2.752828598E0
3.026818959E0,1.544891596E0,9.965670586E0,2.800738096E0
3.028823438E0,1.616755962E0,9.941715240E0,2.834274769E0
3.030827917E0,1.659874558E0,9.908178329E0,2.882184505E0
3.032832396E0,1.683829427E0,9.917760849E0,2.906139135E0
3.034836875E0,1.683829427E0,9.917760849E0,2.944466829E0
3.036841354E0,1.746111870E0,9.912969589E0,2.958839655E0
3.038845834E0,1.779648542E0,9.898596764E0,2.982794523E0
3.040850313E0,1.784439445E0,9.936924934E0,2.992376566E0
3.042854792E0,1.741320848E0,9.980043411E0,3.001958370E0
3.044859271E0,1.822767138E0,9.975252151E0,3.025913239E0
3.046863750E0,1.880258679E0,9.984833717E0,3.054658890E0
3.048868229E0,1.861094832E0,1.003753471E1,3.064240932E0
3.050872709E0,1.889840603E0,1.005190754E1,3.069031715E0
3.052877188E0,1.923377275E0,1.008065319E1,3.064240932E0
3.054881667E0,1.966495872E0,1.016209984E1,3.045077085E0
3.056886146E0,1.961704850E0,1.021959114E1,3.011540174E0
3.058890625E0,1.985659719E0,1.030582809E1,3.011540174E0
3.060895104E0,1.985659719E0,1.035852909E1,3.001958370E0
3.062899584E0,2.071897030E0,1.043518448E1,3.001958370E0
3.064904063E0,2.038360357E0,1.054058552E1,2.968421698E0
3.066908542E0,2.067106009E0,1.060765839E1,2.997167349E0
3.068913021E0,2.071897030E0,1.066035938E1,2.982794523E0
3.070917500E0,2.028778315E0,1.074659634E1,2.978003502E0
3.072921979E0,2.081478834E0,1.078013325E1,2.963630676E0
3.074926459E0,2.095851660E0,1.083762455E1,2.944466829E0
3.076930938E0,2.019196510E0,1.093823433E1,2.939676046E0
3.078935417E0,2.038360357E0,1.102447224E1,2.901348352E0
3.080939896E0,2.071897030E0,1.107238102E1,2.848647833E0
3.082944375E0,2.047942162E0,1.112987328E1,2.810320139E0
3.084948854E0,2.019196510E0,1.119694614E1,2.771992445E0
3.086953334E0,2.076687813E0,1.124485588E1,2.704919100E0
3.088957813E0,2.177298069E0,1.124485588E1,2.743246794E0
3.090962292E0,2.196461916E0,1.131672001E1,2.767201424E0
3.092966771E0,2.172507048E0,1.133109283E1,2.776783466E0
3.094971250E0,2.158134222E0,1.133109283E1,2.776783466E0
3.096975729E0,2.062314987E0,1.135983849E1,2.771992445E0
3.098980209E0,2.047942162E0,1.136942101E1,2.762410402E0
3.100984688E0,2.076687813E0,1.132630253E1,2.781574249E0
3.102989167E0,2.110224485E0,1.127839279E1,2.762410402E0
3.104993646E0,2.086269855E0,1.123527431E1,2.748037577E0
3.106998125E0,2.067106009E0,1.124006462E1,2.762410402E0
3.109002604E0,2.043151140E0,1.122569180E1,2.733664751E0
3.111007084E0,2.047942162E0,1.120652771E1,2.767201424E0
3.113011563E0,2.057523966E0,1.114903641E1,2.771992445E0
3.115016042E0,2.052733183E0,1.112508202E1,2.795947313E0
3.117020521E0,2.057523966E0,1.108675385E1,2.863020658E0
3.119025000E0,2.043151140E0,1.104842663E1,2.853438616E0
3.121029479E0,2.019196510E0,1.104363537E1,2.882184505E0
3.123033959E0,2.023987293E0,1.097177124E1,2.920512199E0
3.125038438E0,1.971286774E0,1.095739841E1,2.920512199E0
3.127042917E0,1.937750101E0,1.096218967E1,2.915721178E0
3.129047396E0,1.918586254E0,1.095739841E1,2.939676046E0
3.131051927E0,1.894631505E0,1.092865276E1,2.944466829E0
3.133056459E0,1.846721888E0,1.089511585E1,2.944466829E0
3.135060990E0,1.827558160E0,1.086157894E1,2.987585545E0
3.137065521E0,1.789230466E0,1.083283329E1,2.987585545E0
3.139070052E0,1.760484695E0,1.078971481E1,3.006749392E0
3.141074584E0,1.736529946E0,1.071785069E1,2.963630676E0
3.143079115E0,1.688620329E0,1.069389534E1,3.011540174E0
3.145083646E0,1.683829427E0,1.065556812E1,3.021122217E0
3.147088177E0,1.631128907E0,1.058849430E1,3.035495043E0
3.149092709E0,1.592801213E0,1.056453991E1,3.040286064E0
3.151097240E0,1.583219290E0,1.047351170E1,3.069031715E0
3.153101771E0,1.559264541E0,1.041602039E1,3.078613758E0
3.155106302E0,1.530518770E0,1.037290192E1,3.136105061E0
3.157110834E0,1.535309672E0,1.034894657E1,3.136105061E0
3.159115365E0,1.492191076E0,1.033457375E1,3.169641972E0
3.161119896E0,1.449072480E0,1.033936501E1,3.126523256E0
3.163124427E0,1.401162982E0,1.033457375E1,3.193596601E0
3.165128959E0,1.319716692E0,1.037769222E1,3.184014797E0
3.167133490E0,1.314925671E0,1.032499218E1,3.212760448E0
3.169138021E0,1.334089518E0,1.028666401E1,3.174432755E0
3.171142552E0,1.334089518E0,1.022917271E1,3.217551470E0
3.173147084E0,1.295761824E0,1.024354553E1,3.241506338E0
3.175151615E0,1.305343747E0,1.020042706E1,3.236715317E0
3.177156146E0,1.310134768E0,1.017168140E1,3.260669947E0
3.179160677E0,1.334089518E0,1.012377167E1,3.270251989E0
3.181165209E0,1.338880539E0,1.011419010E1,3.284624815E0
3.183169740E0,1.324507594E0,1.009502602E1,3.284624815E0
3.185174271E0,1.281388998E0,1.009023476E1,3.246297121E0
3.187178802E0,1.295761824E0,1.010460758E1,3.255879164E0
3.189183334E0,1.300552845E0,1.011419010E1,3.255879164E0
3.191187865E0,1.276598096E0,1.010939884E1,3.203178644E0
3.193192344E0,1.247852325E0,1.014772701E1,3.193596601E0
3.195196823E0,1.276598096E0,1.014293575E1,3.174432755E0
3.197201302E0,1.286179900E0,1.015730858E1,3.179223776E0
3.199205781E0,1.305343747E0,1.014772701E1,3.150478125E0
3.201210261E0,1.286179900E0,1.021479988E1,3.121732235E0
3.203214740E0,1.334089518E0,1.023396397E1,3.107359409E0
3.205219219E0,1.353253365E0,1.027708244E1,3.035495043E0
3.207223698E0,1.338880539E0,1.034415627E1,3.011540174E0
3.209228177E0,1.334089518E0,1.040164757E1,2.939676046E0
3.211232656E0,1.372417212E0,1.043997478E1,2.906139135E0
3.213237136E0,1.405953884E0,1.048788452E1,2.896557331E0
3.215241615E0,1.439490557E0,1.053100300E1,2.877393484E0
3.217246094E0,1.487400174E0,1.055495834E1,2.882184505E0
3.219250573E0,1.496982098E0,1.060286713E1,2.891766310E0
3.221255052E0,1.473027229E0,1.067952251E1,2.930094004E0
3.223259531E0,1.516145945E0,1.066994095E1,2.944466829E0
3.225264011E0,1.559264541E0,1.070826817E1,2.978003502E0
3.227268490E0,1.602383137E0,1.079929638E1,2.968421698E0
3.229272969E0,1.640710831E0,1.081846046E1,2.963630676E0
3.231277448E0,1.621546984E0,1.091427994E1,2.963630676E0
3.233281927E0,1.655083656E0,1.094781685E1,2.930094004E0
3.235286406E0,1.698202252E0,1.097656250E1,2.934885025E0
3.237290886E0,1.736529946E0,1.098614407E1,2.901348352E0
3.239295365E0,1.803603292E0,1.099093533E1,2.858229637E0
3.241299844E0,1.837139964E0,1.098614407E1,2.896557331E0
3.243304323E0,1.870676756E0,1.102447224E1,2.882184505E0
3.245308802E0,1.928168178E0,1.107238102E1,2.886975288E0
3.247313281E0,1.952123046E0,1.107717228E1,2.891766310E0
3.249317761E0,1.932959199E0,1.108196354E1,2.877393484E0
3.251322240E0,1.932959199E0,1.112029076E1,2.848647833E0
3.253326719E0,1.932959199E0,1.120173740E1,2.853438616E0
3.255331198E0,1.913795352E0,1.124485588E1,2.834274769E0
3.257335677E0,1.966495872E0,1.124485588E1,2.819901943E0
3.259340156E0,1.961704850E0,1.127360153E1,2.848647833E0
3.261344636E0,1.990450621E0,1.125922871E1,2.843856812E0
3.263349115E0,2.033569336E0,1.125443745E1,2.839065790E0
3.265353594E0,2.091060638E0,1.117778206E1,2.848647833E0
3.267358073E0,2.119806528E0,1.113945484E1,2.863020658E0
3.269362552E0,2.138970375E0,1.110591793E1,2.872602463E0
3.271367031E0,2.167716026E0,1.104363537E1,2.877393484E0
3.273371511E0,2.182088852E0,1.098135281E1,2.891766310E0
3.275375990E0,2.138970375E0,1.100530815E1,2.915721178E0
3.277380469E0,2.095851660E0,1.100051689E1,2.934885025E0
3.279384948E0,2.081478834E0,1.095260715E1,2.930094004E0
3.281389427E0,2.062314987E0,1.091427994E1,2.934885025E0
3.283393906E0,2.033569336E0,1.084720612E1,2.939676046E0
3.285398386E0,1.956913948E0,1.083283329E1,2.934885025E0
3.287402865E0,1.885049582E0,1.087116146E1,2.944466829E0
3.289407344E0,1.817976236E0,1.081846046E1,2.925302982E0
3.291411823E0,1.722157001E0,1.081366920E1,2.915721178E0
3.293416302E0,1.611965060E0,1.084720612E1,2.934885025E0
3.295420781E0,1.544891596E0,1.085678864E1,2.949257851E0
3.297425261E0,1.473027229E0,1.083762455E1,2.944466829E0
3.299429740E0,1.381999135E0,1.080887890E1,2.944466829E0
3.301434219E0,1.314925671E0,1.081846046E1,2.978003502E0
3.303438698E0,1.238270402E0,1.082804298E1,2.978003502E0
3.305443177E0,1.152033210E0,1.083762455E1,2.997167349E0
3.307447656E0,1.104123592E0,1.084720612E1,2.987585545E0
3.309452136E0,1.008304477E0,1.087116146E1,2.992376566E0
3.311456615E0,9.364401102E-1,1.092865276E1,2.978003502E0
3.313461094E0,8.693667054E-1,1.097656250E1,2.978003502E0
3.315465573E0,8.262480497E-1,1.101968098E1,2.982794523E0
3.317470052E0,7.783384919E-1,1.108675385E1,2.992376566E0
3.319474531E0,7.256379724E-1,1.115861893E1,2.992376566E0
3.321479011E0,7.064741254E-1,1.121131897E1,3.025913239E0
3.323483490E0,6.825193763E-1,1.128318310E1,3.040286064E0
3.325487969E0,6.346098185E-1,1.134067535E1,3.078613758E0
3.327492448E0,6.585645676E-1,1.135025692E1,3.083404541E0
3.329496927E0,6.633555293E-1,1.141732979E1,3.112150431E0
3.331501406E0,7.064741254E-1,1.145565796E1,3.126523256E0
3.333505886E0,7.687565684E-1,1.144607639E1,3.160059929E0
3.335510365E0,7.783384919E-1,1.147003078E1,3.188805819E0
3.337514844E0,8.358299732E-1,1.146523952E1,3.184014797E0
3.339519323E0,8.549938202E-1,1.149877644E1,3.198387623E0
3.341523802E0,8.837395310E-1,1.160417747E1,3.207969427E0
3.343528281E0,8.358299732E-1,1.173353386E1,3.184014797E0
3.345532761E0,8.166661859E-1,1.182456207E1,3.169641972E0
3.347537240E0,8.214571476E-1,1.184372520E1,3.188805819E0
3.349541719E0,8.310390115E-1,1.190600777E1,3.198387623E0
3.351546198E0,8.693667054E-1,1.193475342E1,3.212760448E0
3.353550677E0,9.412310719E-1,1.194433594E1,3.203178644E0
3.355555156E0,9.603948593E-1,1.198266315E1,3.217551470E0
3.357559636E0,1.046632171E0,1.193475342E1,3.236715317E0
3.359564115E0,1.118496418E0,1.191558933E1,3.227133274E0
3.361568594E0,1.142451286E0,1.192038059E1,3.184014797E0
3.363573073E0,1.171196938E0,1.191558933E1,3.164850950E0
3.365577552E0,1.195151806E0,1.194912624E1,3.140896082E0
3.367582031E0,1.209524632E0,1.198745441E1,3.102568388E0
3.369586511E0,1.223897457E0,1.198266315E1,3.059449911E0
3.371590990E0,1.247852325E0,1.199224472E1,3.030704021E0
3.373595469E0,1.286179900E0,1.197787189E1,3.006749392E0
3.375599948E0,1.295761824E0,1.201620007E1,2.997167349E0
3.377604427E0,1.319716692E0,1.200182724E1,2.973212719E0
3.379608906E0,1.319716692E0,1.199703598E1,2.939676046E0
3.381613386E0,1.305343747E0,1.198266315E1,2.906139135E0
3.383617865E0,1.319716692E0,1.195391750E1,2.915721178E0
3.385622344E0,1.305343747E0,1.193475342E1,2.920512199E0
3.387626823E0,1.276598096E0,1.194433594E1,2.920512199E0
3.389631302E0,1.262225151E0,1.194912624E1,2.915721178E0
3.391635781E0,1.238270402E0,1.192517185E1,2.925302982E0
3.393640261E0,1.243061304E0,1.190600777E1,2.925302982E0
3.395644740E0,1.228688478E0,1.190600777E1,2.920512199E0
3.397649219E0,1.204733729E0,1.190121651E1,2.944466829E0
3.399653698E0,1.199942708E0,1.190121651E1,2.958839655E0
3.401658177E0,1.199942708E0,1.191079903E1,2.973212719E0
3.403662656E0,1.214315653E0,1.192038059E1,2.997167349E0
3.405667136E0,1.199942708E0,1.192517185E1,3.030704021E0
3.407671615E0,1.180778861E0,1.201140881E1,3.045077085E0
3.409676094E0,1.175987959E0,1.204494572E1,3.049867868E0
3.411680573E0,1.190360785E0,1.205931854E1,3.088195562E0
3.413685052E0,1.185569882E0,1.210243702E1,3.088195562E0
3.415689584E0,1.161615014E0,1.214076519E1,3.136105061E0
3.417694115E0,1.161615014E0,1.221741962E1,3.121732235E0
3.419698646E0,1.180778861E0,1.223179340E1,3.140896082E0
3.421703177E0,1.171196938E0,1.230365753E1,3.116941452E0
3.423707709E0,1.175987959E0,1.239468575E1,3.131314278E0
3.425712240E0,1.190360785E0,1.242343140E1,3.150478125E0
3.427716771E0,1.185569882E0,1.245696831E1,3.126523256E0
3.429721302E0,1.190360785E0,1.255278683E1,3.136105061E0
3.431725834E0,1.243061304E0,1.261506939E1,3.126523256E0
3.433730365E0,1.300552845E0,1.261027813E1,3.131314278E0
3.435734896E0,1.338880539E0,1.266777039E1,3.145687103E0
3.437739427E0,1.386790037E0,1.267256069E1,3.169641972E0
3.439743959E0,1.425117731E0,1.268214321E1,3.155268908E0
3.441748490E0,1.410744786E0,1.269651604E1,3.160059929E0
3.443753021E0,1.453863502E0,1.271088886E1,3.188805819E0
3.445757552E0,1.492191076E0,1.269172478E1,3.179223776E0
3.447762084E0,1.516145945E0,1.266297913E1,3.174432755E0
3.449766615E0,1.506564021E0,1.268693352E1,3.164850950E0
3.451771146E0,1.487400174E0,1.272526169E1,3.155268908E0
3.453775677E0,1.463445425E0,1.275400734E1,3.169641972E0
3.455780209E0,1.458654404E0,1.276358891E1,3.160059929E0
3.457784740E0,1.420326710E0,1.278275299E1,3.169641972E0
3.459789271E0,1.410744786E0,1.279712582E1,3.207969427E0
3.461793802E0,1.343671441E0,1.284024429E1,3.212760448E0
3.463798334E0,1.329298615E0,1.282587147E1,3.241506338E0
3.465802865E0,1.286179900E0,1.284024429E1,3.255879164E0
3.467807396E0,1.233479381E0,1.285461712E1,3.284624815E0
3.469811927E0,1.204733729E0,1.287378120E1,3.289415836E0
3.471816459E0,1.108914495E0,1.295043659E1,3.298997641E0
3.473820990E0,1.065795898E0,1.303188324E1,3.313370705E0
3.475825521E0,1.003513575E0,1.307979202E1,3.332534313E0
3.477830052E0,9.939315915E-1,1.312291050E1,3.356489182E0
3.479834531E0,9.939315915E-1,1.317561150E1,3.404398680E0
3.481839011E0,1.008304477E0,1.318040276E1,3.423562527E0
3.483843490E0,1.041841149E0,1.318998432E1,3.423562527E0
3.485847969E0,1.061004996E0,1.318998432E1,3.442726374E0
3.487852448E0,1.061004996E0,1.323789406E1,3.495426893E0
3.489856927E0,1.051423073E0,1.332892227E1,3.524172783E0
3.491861406E0,1.070586920E0,1.336724949E1,3.572082281E0
3.493865886E0,1.061004996E0,1.341036797E1,3.596037149E0
3.495870365E0,1.108914495E0,1.343432331E1,3.619991779E0
3.497874844E0,1.128078341E0,1.345348740E1,3.648737669E0
3.499879323E0,1.180778861E0,1.343432331E1,3.706228971E0
3.501883802E0,1.223897457E0,1.341995049E1,3.715811014E0
3.503888281E0,1.286179900E0,1.340078640E1,3.730183840E0
3.505892761E0,1.338880539E0,1.338162231E1,3.768511534E0
3.507897240E0,1.386790037E0,1.335287666E1,3.773302555E0
3.509901719E0,1.415535808E0,1.330496693E1,3.778093338E0
3.511906198E0,1.453863502E0,1.326663971E1,3.782884359E0
3.513910677E0,1.468236327E0,1.323789406E1,3.811630011E0
3.515915156E0,1.511354923E0,1.319956589E1,3.816421032E0
3.517919636E0,1.540100694E0,1.316602993E1,3.845166922E0
3.519924115E0,1.559264541E0,1.312770176E1,3.859539747E0
3.521928594E0,1.573637366E0,1.307500172E1,3.883494377E0
3.523933073E0,1.592801213E0,1.304625607E1,3.907449245E0
3.525937552E0,1.588010311E0,1.302230072E1,3.936194897E0
3.527942031E0,1.592801213E0,1.299834633E1,3.950567961E0
3.529946511E0,1.583219290E0,1.298397350E1,3.950567961E0
3.531950990E0,1.583219290E0,1.296480942E1,3.940985918E0
3.533955469E0,1.568846464E0,1.298397350E1,3.950567961E0
3.535959948E0,1.544891596E0,1.296960068E1,3.945776939E0
3.537964427E0,1.501773000E0,1.297439098E1,3.964940786E0
3.539968906E0,1.492191076E0,1.301271915E1,3.960149765E0
3.541973386E0,1.477818251E0,1.304146481E1,3.969731808E0
3.543977865E0,1.439490557E0,1.305583763E1,3.955358744E0
3.545982344E0,1.415535808E0,1.307021046E1,3.955358744E0
3.547986823E0,1.372417212E0,1.308937454E1,3.964940786E0
3.549991302E0,1.329298615E0,1.308937454E1,3.988895416E0
3.551995781E0,1.319716692E0,1.307500172E1,4.017641068E0
3.554000261E0,1.314925671E0,1.303667355E1,4.036805153E0
3.556004740E0,1.295761824E0,1.300313663E1,4.036805153E0
3.558009219E0,1.281388998E0,1.296480942E1,4.036805153E0
3.560013698E0,1.267016172E0,1.293606377E1,4.046386719E0
3.562018177E0,1.281388998E0,1.287378120E1,4.075132847E0
3.564022656E0,1.267016172E0,1.283066273E1,4.065550804E0
3.566027136E0,1.271807075E0,1.276838017E1,4.084714413E0
3.568031615E0,1.295761824E0,1.272047043E1,4.089505672E0
3.570036094E0,1.290970922E0,1.267256069E1,4.113460064E0
3.572040573E0,1.300552845E0,1.259590530E1,4.123042107E0
3.574045052E0,1.295761824E0,1.252883244E1,4.127833366E0
3.576049531E0,1.300552845E0,1.249050426E1,4.146996975E0
3.578054011E0,1.310134768E0,1.242822266E1,4.156579018E0
3.580058490E0,1.343671441E0,1.237073040E1,4.161369801E0
3.582062969E0,1.343671441E0,1.230844784E1,4.146996975E0
3.584067448E0,1.358044267E0,1.225095654E1,4.137414932E0
3.586071927E0,1.358044267E0,1.221262932E1,4.146996975E0
3.588076406E0,1.362835288E0,1.215992832E1,4.146996975E0
3.590080886E0,1.372417212E0,1.211680984E1,4.127833366E0
3.592085365E0,1.377208114E0,1.206410980E1,4.118251324E0
3.594089844E0,1.386790037E0,1.203536415E1,4.127833366E0
3.596094323E0,1.415535808E0,1.202099037E1,4.099087238E0
3.598098802E0,1.415535808E0,1.198745441E1,4.118251324E0
3.600103281E0,1.434699655E0,1.195870876E1,4.099087238E0
3.602107761E0,1.449072480E0,1.194912624E1,4.084714413E0
3.604112240E0,1.453863502E0,1.193954468E1,4.055968761E0
3.606116719E0,1.449072480E0,1.193954468E1,4.036805153E0
3.608121198E0,1.473027229E0,1.195870876E1,4.008059025E0
3.610125677E0,1.482609153E0,1.197787189E1,3.979313612E0
3.612130156E0,1.496982098E0,1.197308159E1,3.969731808E0
3.614134636E0,1.501773000E0,1.201620007E1,3.936194897E0
3.616139115E0,1.520936847E0,1.202578163E1,3.940985918E0
3.618143594E0,1.554473519E0,1.204973698E1,3.917031288E0
3.620148073E0,1.573637366E0,1.203536415E1,3.883494377E0
3.622152552E0,1.602383137E0,1.207369137E1,3.849957705E0
3.624157031E0,1.616755962E0,1.209764576E1,3.821212053E0
3.626161511E0,1.631128907E0,1.211680984E1,3.792466402E0
3.628165990E0,1.669456482E0,1.211201859E1,3.749347687E0
3.630170469E0,1.679038405E0,1.211680984E1,3.744556665E0
3.632174948E0,1.712575078E0,1.212639236E1,3.687065125E0
3.634179427E0,1.746111870E0,1.214555550E1,3.667901516E0
3.636183906E0,1.741320848E0,1.213597393E1,3.643946648E0
3.638188386E0,1.779648542E0,1.212160110E1,3.600827932E0
3.640192865E0,1.803603292E0,1.210243702E1,3.557709455E0
3.642197344E0,1.817976236E0,1.208806419E1,3.519381762E0
3.644201823E0,1.856303811E0,1.204973698E1,3.481054068E0
3.646206302E0,1.861094832E0,1.203057289E1,3.452308416E0
3.648210781E0,1.875467658E0,1.200661755E1,3.442726374E0
3.650215261E0,1.880258679E0,1.194912624E1,3.390025854E0
3.652219740E0,1.870676756E0,1.190600777E1,3.361280203E0
3.654224219E0,1.885049582E0,1.183893490E1,3.327743530E0
3.656228698E0,1.899422407E0,1.177665234E1,3.313370705E0
3.658233177E0,1.880258679E0,1.175269699E1,3.284624815E0
3.660237656E0,1.875467658E0,1.167604160E1,3.284624815E0
3.662242136E0,1.875467658E0,1.161855030E1,3.270251989E0
3.664246615E0,1.856303811E0,1.156105900E1,3.260669947E0
3.666251094E0,1.808394313E0,1.150356770E1,3.231924295E0
3.668255573E0,1.784439445E0,1.144607639E1,3.203178644E0
3.670260052E0,1.741320848E0,1.139816666E1,3.188805819E0
3.672264531E0,1.707784176E0,1.135025692E1,3.193596601E0
3.674269011E0,1.679038405E0,1.132151127E1,3.198387623E0
3.676273490E0,1.635919809E0,1.127839279E1,3.193596601E0
3.678277969E0,1.578428388E0,1.124964714E1,3.212760448E0
3.680282448E0,1.568846464E0,1.120652771E1,3.227133274E0
3.682286927E0,1.516145945E0,1.114424610E1,3.203178644E0
3.684291406E0,1.511354923E0,1.110112667E1,3.212760448E0
3.686295886E0,1.496982098E0,1.107238102E1,3.217551470E0
3.688300365E0,1.473027229E0,1.103405380E1,3.217551470E0
3.690304844E0,1.444281578E0,1.101009846E1,3.203178644E0
3.692309323E0,1.434699655E0,1.097656250E1,3.207969427E0
3.694313802E0,1.425117731E0,1.094781685E1,3.217551470E0
3.696318281E0,1.425117731E0,1.091427994E1,3.227133274E0
3.698322761E0,1.429908633E0,1.089511585E1,3.203178644E0
3.700327240E0,1.429908633E0,1.088074303E1,3.203178644E0
3.702331719E0,1.425117731E0,1.085678864E1,3.222342491E0
3.704336250E0,1.458654404E0,1.082804298E1,3.246297121E0
3.706340781E0,1.468236327E0,1.078971481E1,3.270251989E0
3.708345313E0,1.482609153E0,1.074659634E1,3.289415836E0
3.710349844E0,1.511354923E0,1.068910503E1,3.322952509E0
3.712354375E0,1.525727868E0,1.063161373E1,3.327743530E0
3.714358906E0,1.559264541E0,1.056933117E1,3.375653028E0
3.716363438E0,1.588010311E0,1.054058552E1,3.399607897E0
3.718367969E0,1.607174039E0,1.046872044E1,3.413980722E0
3.720372500E0,1.621546984E0,1.042081165E1,3.433144569E0
3.722377031E0,1.659874558E0,1.035852909E1,3.476263046E0
3.724381563E0,1.683829427E0,1.031061935E1,3.524172783E0
3.726386094E0,1.698202252E0,1.024833679E1,3.567291260E0
3.728390625E0,1.717366099E0,1.019084549E1,3.600827932E0
3.730395156E0,1.741320848E0,1.016209984E1,3.648737669E0
3.732399688E0,1.746111870E0,1.012377167E1,3.687065125E0
3.734404219E0,1.750902772E0,1.008544445E1,3.701438189E0
3.736408750E0,1.770066619E0,1.005669880E1,3.734974861E0
3.738413281E0,1.760484695E0,1.001837063E1,3.754138708E0
3.740417813E0,1.774857521E0,1.001357937E1,3.749347687E0
3.742422344E0,1.760484695E0,9.980043411E0,3.758929491E0
3.744426875E0,1.779648542E0,9.989624977E0,3.782884359E0
3.746431406E0,1.789230466E0,9.965670586E0,3.792466402E0
3.748435938E0,1.779648542E0,9.965670586E0,3.778093338E0
3.750440469E0,1.784439445E0,9.965670586E0,3.787675381E0
3.752445000E0,1.798812389E0,9.960879326E0,3.787675381E0
3.754449531E0,1.808394313E0,9.970460892E0,3.758929491E0
3.756454063E0,1.817976236E0,9.980043411E0,3.763720512E0
3.758458594E0,1.803603292E0,9.984833717E0,3.768511534E0
3.760463125E0,1.832349062E0,9.989624977E0,3.758929491E0
3.762467656E0,1.837139964E0,1.003274345E1,3.739765882E0
3.764472188E0,1.841930985E0,1.003753471E1,3.739765882E0
3.766476667E0,1.875467658E0,1.003753471E1,3.739765882E0
3.768481146E0,1.856303811E0,1.008065319E1,3.701438189E0
3.770485625E0,1.875467658E0,1.010939884E1,3.696647167E0
3.772490104E0,1.894631505E0,1.011898041E1,3.701438189E0
3.774494584E0,1.913795352E0,1.013814449E1,3.667901516E0
3.776499063E0,1.923377275E0,1.016209984E1,3.672692299E0
3.778503542E0,1.937750101E0,1.015251732E1,3.658319473E0
3.780508021E0,1.942541122E0,1.015730858E1,3.658319473E0
3.782512500E0,1.976077795E0,1.015730858E1,3.643946648E0
3.784516979E0,1.980868697E0,1.017168140E1,3.629573822E0
3.786521459E0,2.004823685E0,1.017647266E1,3.610409975E0
3.788525938E0,2.028778315E0,1.017168140E1,3.581664085E0
3.790530417E0,2.038360357E0,1.017647266E1,3.562500238E0
3.792534896E0,2.057523966E0,1.017168140E1,3.543336630E0
3.794539375E0,2.071897030E0,1.017168140E1,3.509799719E0
3.796543854E0,2.110224485E0,1.019563580E1,3.490636110E0
3.798548334E0,2.124597549E0,1.021000862E1,3.485845089E0
3.800552813E0,2.153343201E0,1.019563580E1,3.476263046E0
3.802557292E0,2.177298069E0,1.017647266E1,3.485845089E0
3.804561771E0,2.239580393E0,1.018126297E1,3.505008936E0
3.806566250E0,2.268326044E0,1.017168140E1,3.485845089E0
3.808570729E0,2.311444759E0,1.017647266E1,3.495426893E0
3.810575209E0,2.344981432E0,1.016689014E1,3.500217915E0
3.812579688E0,2.368936300E0,1.016209984E1,3.514590740E0
3.814584167E0,2.407263994E0,1.016689014E1,3.514590740E0
3.816588646E0,2.440800667E0,1.020042706E1,3.505008936E0
3.818593125E0,2.469546318E0,1.019563580E1,3.528963566E0
3.820597604E0,2.512665033E0,1.020042706E1,3.524172783E0
3.822602084E0,2.550992727E0,1.021959114E1,3.548127413E0
3.824606563E0,2.589320183E0,1.023396397E1,3.514590740E0
3.826611042E0,2.618066072E0,1.026270962E1,3.519381762E0
3.828615521E0,2.627647877E0,1.029145527E1,3.509799719E0
3.830620000E0,2.656393766E0,1.029624653E1,3.500217915E0
3.832624479E0,2.694721222E0,1.032978344E1,3.514590740E0
3.834628959E0,2.733048916E0,1.035373783E1,3.524172783E0
3.836633438E0,2.766585588E0,1.036331940E1,3.533754587E0
3.838637917E0,2.804913282E0,1.035852909E1,3.586455107E0
3.840642396E0,2.833659172E0,1.033457375E1,3.610409975E0
3.842646875E0,2.881568670E0,1.032499218E1,3.648737669E0
3.844651354E0,2.924687386E0,1.029145527E1,3.672692299E0
3.846655834E0,2.958224058E0,1.024833679E1,3.706228971E0
3.848660313E0,3.010924578E0,1.022438240E1,3.730183840E0
3.850664792E0,3.039670229E0,1.017647266E1,3.744556665E0
3.852669271E0,3.073206902E0,1.013335419E1,3.744556665E0
3.854673750E0,3.087579727E0,1.009023476E1,3.725392818E0
3.856678229E0,3.111534595E0,1.007586193E1,3.715811014E0
3.858682709E0,3.106743574E0,1.006628036E1,3.677483320E0
3.860687188E0,3.092370749E0,1.007586193E1,3.610409975E0
3.862691667E0,3.092370749E0,1.010460758E1,3.567291260E0
3.864696146E0,3.039670229E0,1.012377167E1,3.509799719E0
3.866700625E0,3.030088425E0,1.011898041E1,3.485845089E0
3.868705104E0,3.015715361E0,1.012377167E1,3.466681242E0
3.870709584E0,2.991760731E0,1.010939884E1,3.457099199E0
3.872714063E0,2.967805862E0,1.010460758E1,3.485845089E0
3.874718542E0,2.948642015E0,1.008065319E1,3.500217915E0
3.876723021E0,2.943850994E0,1.006628036E1,3.524172783E0
3.878727500E0,2.905523539E0,1.001357937E1,3.552918434E0
3.880731979E0,2.881568670E0,9.970460892E0,3.600827932E0
3.882736459E0,2.862404823E0,9.932133675E0,3.619991779E0
3.884740938E0,2.814495325E0,9.912969589E0,3.682274342E0
3.886745417E0,2.819286108E0,9.865059853E0,3.720602036E0
3.888749896E0,2.771376610E0,9.836314201E0,3.778093338E0
3.890754375E0,2.752212763E0,9.788404465E0,3.840375900E0
3.892758854E0,2.723467112E0,9.745285988E0,3.902658224E0
3.894763334E0,2.689930439E0,9.697376251E0,3.974522591E0
3.896767813E0,2.670766592E0,9.659049034E0,4.036805153E0
3.898772292E0,2.646811724E0,9.606348038E0,4.099087238E0
3.900776771E0,2.594111204E0,9.568020821E0,4.156579018E0
3.902781250E0,2.565365553E0,9.534483910E0,4.185324669E0
3.904785729E0,2.522246838E0,9.510529518E0,4.247607231E0
3.906790209E0,2.474337339E0,9.476992607E0,4.276352882E0
3.908794688E0,2.421636820E0,9.453038216E0,4.276352882E0
3.910799167E0,2.359354258E0,9.438665390E0,4.295516968E0
3.912803646E0,2.316235781E0,9.433874130E0,4.309889793E0
3.914808125E0,2.292280912E0,9.433874130E0,4.314680576E0
3.916812604E0,2.239580393E0,9.409918785E0,4.300307751E0
3.918817084E0,2.225207567E0,9.419501305E0,4.295516968E0
3.920821563E0,2.215625525E0,9.433874130E0,4.290725708E0
3.922826042E0,2.196461916E0,9.438665390E0,4.290725708E0
3.924830521E0,2.182088852E0,9.462619781E0,4.247607231E0
3.926835000E0,2.162925005E0,9.476992607E0,4.228443146E0
3.928839479E0,2.177298069E0,9.505738258E0,4.209279537E0
3.930843959E0,2.186879873E0,9.520111084E0,4.190115452E0
3.932848438E0,2.186879873E0,9.558439255E0,4.175742626E0
3.934852917E0,2.215625525E0,9.582393646E0,4.161369801E0
3.936857396E0,2.229998589E0,9.611139297E0,4.108669281E0
3.938861875E0,2.263535261E0,9.635094643E0,4.079923630E0
3.940866354E0,2.273117065E0,9.668630600E0,4.041595936E0
3.942870834E0,2.311444759E0,9.740495682E0,3.998477459E0
3.944875313E0,2.344981432E0,9.783614159E0,3.964940786E0
3.946879792E0,2.383309126E0,9.821941376E0,3.912240267E0
3.948884271E0,2.426427841E0,9.889015198E0,3.878703594E0
3.950888750E0,2.455173492E0,9.956088066E0,3.826003075E0
3.952893229E0,2.488710165E0,1.001837063E1,3.773302555E0
3.954897709E0,2.531828880E0,1.009023476E1,3.730183840E0
3.956902188E0,2.584529400E0,1.015251732E1,3.687065125E0
3.958906667E0,2.603693247E0,1.021000862E1,3.629573822E0
3.960911146E0,2.632438898E0,1.028187370E1,3.543336630E0
3.962915625E0,2.685139418E0,1.034415627E1,3.490636110E0
3.964920104E0,2.713885069E0,1.043039322E1,3.409189701E0
3.966924584E0,2.728258133E0,1.050225735E1,3.346907377E0
3.968929063E0,2.761794806E0,1.060286713E1,3.289415836E0
3.970933542E0,2.804913282E0,1.066514969E1,3.207969427E0
3.972938021E0,2.828868151E0,1.070826817E1,3.150478125E0
3.974942500E0,2.876777649E0,1.073701477E1,3.121732235E0
3.976946979E0,2.905523539E0,1.074180508E1,3.102568388E0
3.978951459E0,2.963014841E0,1.072743225E1,3.069031715E0
3.980955990E0,2.996551752E0,1.068431377E1,3.078613758E0
3.982960521E0,3.044461250E0,1.062682247E1,3.083404541E0
3.984965052E0,3.082788944E0,1.056933117E1,3.064240932E0
3.986969584E0,3.130698442E0,1.050225735E1,3.064240932E0
3.988974115E0,3.178607941E0,1.043997478E1,3.054658890E0
3.990978646E0,3.197771788E0,1.036331940E1,3.049867868E0
3.992983177E0,3.183398962E0,1.032978344E1,3.030704021E0
3.994987709E0,3.226517677E0,1.024833679E1,3.040286064E0
3.996992240E0,3.221726656E0,1.017647266E1,3.040286064E0
3.998996771E0,3.226517677E0,1.011898041E1,3.049867868E0
4.001001302E0,3.212144613E0,1.003753471E1,3.083404541E0
4.003005834E0,3.192980766E0,9.951297760E0,3.136105061E0
4.005010365E0,3.188189983E0,9.884223938E0,3.160059929E0
4.007014896E0,3.116325617E0,9.807568550E0,3.193596601E0
4.009019427E0,3.077997923E0,9.711749077E0,3.231924295E0
4.011023959E0,3.015715361E0,9.659049034E0,3.255879164E0
4.013028490E0,2.958224058E0,9.568020821E0,3.260669947E0
4.015033021E0,2.900732517E0,9.505738258E0,3.279833794E0
4.017037552E0,2.848031998E0,9.443455696E0,3.284624815E0
4.019042084E0,2.752212763E0,9.400337219E0,3.284624815E0
4.021046615E0,2.689930439E0,9.357218742E0,3.313370705E0
4.023051146E0,2.618066072E0,9.309309006E0,3.294206858E0
4.025055677E0,2.541410685E0,9.275772095E0,3.279833794E0
4.027060209E0,2.469546318E0,9.237444878E0,3.265460968E0
4.029064740E0,2.383309126E0,9.223072052E0,3.284624815E0
4.031069271E0,2.340190411E0,9.208699226E0,3.251088142E0
4.033073802E0,2.263535261E0,9.184743881E0,3.236715317E0
4.035078334E0,2.201252699E0,9.175162315E0,3.207969427E0
4.037082865E0,2.134179354E0,9.179953575E0,3.179223776E0
4.039087396E0,2.100642681E0,9.203907967E0,3.116941452E0
4.041091927E0,2.038360357E0,9.266190529E0,3.049867868E0
4.043096459E0,2.004823685E0,9.347637177E0,2.982794523E0
4.045100938E0,1.947332025E0,9.419501305E0,2.944466829E0
4.047105417E0,1.918586254E0,9.462619781E0,2.925302982E0
4.049109896E0,1.909004331E0,9.505738258E0,2.958839655E0
4.051114375E0,1.875467658E0,9.486574173E0,3.011540174E0
4.053118854E0,1.865885735E0,9.462619781E0,3.054658890E0
4.055123334E0,1.851512909E0,9.419501305E0,3.078613758E0
4.057127813E0,1.875467658E0,9.352427483E0,3.088195562E0
4.059132292E0,1.856303811E0,9.275772095E0,3.040286064E0
4.061136771E0,1.841930985E0,9.194326401E0,3.035495043E0
4.063141250E0,1.841930985E0,9.127252579E0,2.973212719E0
4.065145729E0,1.841930985E0,9.069761276E0,2.910930157E0
4.067150209E0,1.851512909E0,8.997897148E0,2.848647833E0
4.069154688E0,1.851512909E0,8.916450500E0,2.800738096E0
4.071159167E0,1.870676756E0,8.839795113E0,2.748037577E0
4.073163646E0,1.856303811E0,8.777512550E0,2.700128078E0
4.075168125E0,1.865885735E0,8.672111511E0,2.642636538E0
4.077172604E0,1.870676756E0,8.561920166E0,2.609099865E0
4.079177084E0,1.870676756E0,8.456519127E0,2.575563192E0
4.081181563E0,1.889840603E0,8.355908394E0,2.556399345E0
4.083186042E0,1.904213428E0,8.236134529E0,2.570772171E0
4.085190521E0,1.889840603E0,8.145106316E0,2.575563192E0
4.087195000E0,1.880258679E0,8.058869362E0,2.623472691E0
4.089199479E0,1.870676756E0,7.963050365E0,2.642636538E0
4.091203959E0,1.832349062E0,7.867230892E0,2.685755253E0
4.093208438E0,1.794021368E0,7.780993938E0,2.704919100E0
4.095212917E0,1.760484695E0,7.704338551E0,2.738455772E0
4.097217396E0,1.707784176E0,7.618101120E0,2.762410402E0
4.099221875E0,1.640710831E0,7.546236992E0,2.738455772E0
4.101226354E0,1.564055443E0,7.488745213E0,2.762410402E0
4.103230834E0,1.473027229E0,7.426463127E0,2.738455772E0
4.105235313E0,1.401162982E0,7.373762608E0,2.724082947E0
4.107239792E0,1.295761824E0,7.335434914E0,2.709709883E0
4.109244271E0,1.190360785E0,7.306689262E0,2.704919100E0
4.111248750E0,1.089750767E0,7.268361568E0,2.671382427E0
4.113253229E0,9.891406298E-1,7.258779526E0,2.666591406E0
4.115257709E0,8.789486289E-1,7.263570309E0,2.647427559E0
4.117262188E0,7.831294537E-1,7.277943134E0,2.613890886E0
4.119266667E0,6.585645676E-1,7.311480045E0,2.604308844E0
4.121271146E0,5.579544902E-1,7.316270828E0,2.585144997E0
4.123275625E0,4.573444128E-1,7.345016956E0,2.565981388E0
4.125280104E0,3.758981228E-1,7.364180565E0,2.561190367E0
4.127284584E0,2.896609008E-1,7.421671867E0,2.580354214E0
4.129289063E0,1.986327171E-1,7.464790821E0,2.575563192E0
4.131293542E0,1.363502741E-1,7.503118515E0,2.580354214E0
4.133298021E0,4.532208294E-2,7.536654949E0,2.604308844E0
4.135302500E0,-7.378444076E-3,7.565400600E0,2.618681908E0
4.137306979E0,-5.049705505E-2,7.598937511E0,2.628263712E0
4.139311459E0,-8.403375745E-2,7.613310337E0,2.642636538E0
4.141315938E0,-1.127794981E-1,7.646847248E0,2.676173210E0
4.143320417E0,-1.223614067E-1,7.661220074E0,2.680964231E0
4.145324896E0,-1.558981091E-1,7.666010857E0,2.690546274E0
4.147329375E0,-1.942257732E-1,7.680383682E0,2.704919100E0
4.149333854E0,-2.181805521E-1,7.718711376E0,2.714500904E0
4.151338334E0,-2.133895904E-1,7.709129333E0,2.714500904E0
4.153342813E0,-2.229715139E-1,7.713920593E0,2.719291925E0
4.155347292E0,-2.277624756E-1,7.733084202E0,2.719291925E0
4.157351771E0,-2.325534374E-1,7.728293419E0,2.738455772E0
4.159356250E0,-2.085986286E-1,7.699547768E0,2.738455772E0
4.161360729E0,-1.894348115E-1,7.685174465E0,2.714500904E0
4.163365209E0,-1.750619411E-1,7.646847248E0,2.733664751E0
4.165369688E0,-1.511071622E-1,7.627683163E0,2.714500904E0
4.167374167E0,-1.319433302E-1,7.598937511E0,2.704919100E0
4.169378646E0,-1.175704598E-1,7.560609818E0,2.709709883E0
4.171383125E0,-7.924279571E-2,7.512700081E0,2.695337057E0
4.173387604E0,-5.528801680E-2,7.483954430E0,2.676173210E0
4.175392084E0,2.203471959E-3,7.426463127E0,2.671382427E0
4.177396563E0,3.574017063E-2,7.364180565E0,2.652218580E0
4.179401042E0,5.969495699E-2,7.306689262E0,2.633054733E0
4.181405521E0,1.028135717E-1,7.253988743E0,2.637845755E0
4.183410000E0,1.507231444E-1,7.201288223E0,2.642636538E0
4.185414479E0,1.842598468E-1,7.148587704E0,2.628263712E0
4.187418959E0,2.177965343E-1,7.076723099E0,2.633054733E0
4.189423438E0,2.657061219E-1,7.033604622E0,2.623472691E0
4.191427917E0,3.040337563E-1,6.980904102E0,2.613890886E0
4.193432396E0,3.375704885E-1,6.942576408E0,2.589936018E0
4.195436875E0,3.615252376E-1,6.885084629E0,2.580354214E0
4.197441354E0,3.663161993E-1,6.851548195E0,2.546817541E0
4.199445834E0,3.902710080E-1,6.818011284E0,2.518071651E0
4.201450313E0,4.238076806E-1,6.779683590E0,2.508489847E0
4.203454792E0,4.285986423E-1,6.760519981E0,2.489326000E0
4.205459271E0,4.573444128E-1,6.712610245E0,2.470162153E0
4.207463750E0,4.812991619E-1,6.679073811E0,2.455789328E0
4.209468229E0,5.004630089E-1,6.655118942E0,2.450998306E0
4.211472709E0,5.244178176E-1,6.612000465E0,2.441416502E0
4.213477188E0,5.339996815E-1,6.602418423E0,2.446207285E0
4.215481667E0,5.531635284E-1,6.588045597E0,2.417461634E0
