"Time (s)","Gyroscope x (rad/s)","Gyroscope y (rad/s)","Gyroscope z (rad/s)"
8.222317700E-2,1.224054396E-2,5.003409833E-2,1.100966483E-1
8.422760400E-2,6.914226338E-3,4.364252090E-2,1.143577024E-1
8.623203100E-2,1.117528044E-2,3.831619769E-2,1.090313867E-1
8.823645900E-2,5.848962814E-3,3.405514359E-2,1.111619100E-1
9.024093800E-2,3.718435764E-3,2.766356617E-2,1.037050635E-1
9.224541700E-2,3.718435764E-3,2.340251207E-2,9.624822438E-2
9.424989600E-2,-1.607881859E-3,1.274987403E-2,9.837874770E-2
9.625437500E-2,-2.673145384E-3,1.274987403E-2,9.624822438E-2
9.825885400E-2,-2.673145384E-3,3.162502311E-3,9.305243194E-2
1.002633860E-1,-5.868935958E-3,-2.163815312E-3,8.985663950E-2
1.022679170E-1,-9.064726532E-3,-1.068592351E-2,9.198717028E-2
1.042724480E-1,-1.012999006E-2,-1.388171408E-2,9.198717028E-2
1.062769790E-1,-1.119525358E-2,-1.601224020E-2,8.879137784E-2
1.082815110E-1,-9.064726532E-3,-2.559961379E-2,8.879137784E-2
1.102860420E-1,-1.226051711E-2,-2.773014084E-2,8.666084707E-2
1.122905730E-1,-1.226051711E-2,-3.305645660E-2,8.985663950E-2
1.142951040E-1,-1.332578063E-2,-3.625224903E-2,8.879137784E-2
1.162996360E-1,-1.545630768E-2,-4.264383018E-2,8.559558541E-2
1.183041670E-1,-1.332578063E-2,-4.157856479E-2,8.772611618E-2
1.203086980E-1,-1.545630768E-2,-4.690488428E-2,8.666084707E-2
1.223132290E-1,-1.439104415E-2,-5.116593838E-2,8.666084707E-2
1.243177610E-1,-1.226051711E-2,-5.116593838E-2,8.559558541E-2
1.263222920E-1,-1.865209825E-2,-5.862277746E-2,8.879137784E-2
1.283268230E-1,-1.758683473E-2,-5.755751580E-2,9.305243194E-2
1.303313540E-1,-1.439104415E-2,-5.649225414E-2,9.624822438E-2
1.323358860E-1,-1.758683473E-2,-5.862277746E-2,8.985663950E-2
1.343404170E-1,-2.078262530E-2,-6.075330824E-2,9.944401681E-2
1.363449480E-1,-1.971736178E-2,-5.649225414E-2,9.518295527E-2
1.383494790E-1,-1.865209825E-2,-5.755751580E-2,9.944401681E-2
1.403540110E-1,-1.652157120E-2,-5.649225414E-2,9.624822438E-2
1.423585420E-1,-1.971736178E-2,-5.862277746E-2,9.731348604E-2
1.443630730E-1,-1.545630768E-2,-5.649225414E-2,9.837874770E-2
1.463676040E-1,-1.652157120E-2,-5.649225414E-2,9.837874770E-2
1.483721360E-1,-1.971736178E-2,-5.223120004E-2,1.005092785E-1
1.503766670E-1,-2.184788883E-2,-5.542699248E-2,1.037050635E-1
1.523811980E-1,-2.184788883E-2,-5.542699248E-2,1.026398018E-1
1.543857290E-1,-2.291315235E-2,-5.329646170E-2,1.015745401E-1
1.563902610E-1,-2.078262530E-2,-5.542699248E-2,9.518295527E-2
1.583947920E-1,-1.971736178E-2,-5.223120004E-2,9.944401681E-2
1.603992710E-1,-2.078262530E-2,-5.010067299E-2,1.005092785E-1
1.624037500E-1,-2.291315235E-2,-5.010067299E-2,9.731348604E-2
1.644082290E-1,-2.291315235E-2,-5.010067299E-2,9.411769360E-2
1.664127090E-1,-1.971736178E-2,-4.477435350E-2,9.411769360E-2
1.684171880E-1,-1.865209825E-2,-4.690488428E-2,9.731348604E-2
1.704216670E-1,-2.184788883E-2,-4.583961889E-2,9.518295527E-2
1.724261460E-1,-1.758683473E-2,-4.264383018E-2,9.518295527E-2
1.744306250E-1,-1.545630768E-2,-4.051330313E-2,9.198717028E-2
1.764351040E-1,-1.865209825E-2,-4.370909184E-2,9.305243194E-2
1.784395840E-1,-1.652157120E-2,-3.518698364E-2,8.879137784E-2
1.804440630E-1,-1.226051711E-2,-3.412172198E-2,9.092190862E-2
1.824485420E-1,-1.226051711E-2,-3.518698364E-2,8.559558541E-2
1.844530210E-1,-9.064726532E-3,-3.412172198E-2,8.772611618E-2
1.864575000E-1,-1.012999006E-2,-2.879540250E-2,8.453032374E-2
1.884619790E-1,-1.012999006E-2,-2.666487545E-2,8.239980042E-2
1.904664590E-1,-4.803672433E-3,-2.027329430E-2,8.559558541E-2
1.924709380E-1,-6.934199482E-3,-1.920803264E-2,8.559558541E-2
1.944754170E-1,-6.934199482E-3,-1.920803264E-2,8.559558541E-2
1.964798960E-1,-5.868935958E-3,-1.814276725E-2,8.453032374E-2
1.984843750E-1,-2.673145384E-3,-1.281645056E-2,8.453032374E-2
2.004888540E-1,-3.738408908E-3,-1.388171408E-2,8.772611618E-2
2.024933340E-1,-3.738408908E-3,-1.175118703E-2,8.239980042E-2
2.044978130E-1,-1.607881859E-3,-9.620659985E-3,8.239980042E-2
2.065022920E-1,-5.426183343E-4,-6.424869411E-3,8.453032374E-2
2.085067710E-1,-3.738408908E-3,-7.490132935E-3,8.772611618E-2
2.105112500E-1,-5.426183343E-4,-2.163815312E-3,8.666084707E-2
2.125157290E-1,5.226451904E-4,-1.098551787E-3,8.346506208E-2
2.145202090E-1,3.718435764E-3,-2.163815312E-3,8.453032374E-2
2.165246880E-1,5.226451904E-4,-3.229078837E-3,8.772611618E-2
2.185291670E-1,1.587908715E-3,-1.098551787E-3,8.666084707E-2
2.205336460E-1,-5.426183343E-4,-3.229078837E-3,9.092190862E-2
2.225381250E-1,5.848962814E-3,-2.163815312E-3,8.879137784E-2
2.245426040E-1,4.783699289E-3,-5.359605886E-3,9.624822438E-2
2.265470840E-1,4.783699289E-3,-6.424869411E-3,9.305243194E-2
2.285515630E-1,4.783699289E-3,-7.490132935E-3,9.624822438E-2
2.305560420E-1,4.783699289E-3,-9.620659985E-3,9.731348604E-2
2.325605210E-1,3.718435764E-3,-1.175118703E-2,1.037050635E-1
2.345650000E-1,6.914226338E-3,-1.068592351E-2,1.015745401E-1
2.365694790E-1,9.044753388E-3,-1.175118703E-2,1.037050635E-1
2.385739590E-1,6.914226338E-3,-1.068592351E-2,1.090313867E-1
2.405784380E-1,2.653172240E-3,-1.494697761E-2,1.090313867E-1
2.425829170E-1,9.044753388E-3,-1.707750559E-2,1.111619100E-1
2.445873960E-1,5.848962814E-3,-2.346908674E-2,1.069008559E-1
2.465918750E-1,1.011001691E-2,-2.027329430E-2,1.100966483E-1
2.485963540E-1,1.011001691E-2,-2.559961379E-2,1.111619100E-1
2.506008340E-1,5.848962814E-3,-2.666487545E-2,1.122271717E-1
2.526053130E-1,4.783699289E-3,-2.453434840E-2,1.079661250E-1
2.546097920E-1,6.914226338E-3,-2.559961379E-2,1.100966483E-1
2.566142710E-1,6.914226338E-3,-2.986066788E-2,1.111619100E-1
2.586187500E-1,2.653172240E-3,-2.666487545E-2,1.100966483E-1
2.606232290E-1,2.653172240E-3,-3.305645660E-2,1.069008559E-1
2.626277090E-1,-2.673145384E-3,-3.305645660E-2,1.047703326E-1
2.646321880E-1,-5.868935958E-3,-3.092592955E-2,1.037050635E-1
2.666366670E-1,-7.999463007E-3,-3.625224903E-2,9.944401681E-2
2.686411460E-1,-5.868935958E-3,-4.051330313E-2,1.015745401E-1
2.706456250E-1,-5.868935958E-3,-3.838277608E-2,9.837874770E-2
2.726501040E-1,-1.012999006E-2,-3.625224903E-2,9.731348604E-2
2.746545840E-1,-1.119525358E-2,-3.731751069E-2,9.731348604E-2
2.766590630E-1,-1.332578063E-2,-4.051330313E-2,9.092190862E-2
2.786635420E-1,-1.119525358E-2,-3.731751069E-2,8.772611618E-2
2.806680210E-1,-1.226051711E-2,-4.157856479E-2,8.879137784E-2
2.826725000E-1,-1.545630768E-2,-4.264383018E-2,8.239980042E-2
2.846769790E-1,-1.545630768E-2,-4.690488428E-2,8.133453131E-2
2.866814590E-1,-1.119525358E-2,-4.264383018E-2,7.281242311E-2
2.886859380E-1,-1.226051711E-2,-4.583961889E-2,7.387769222E-2
2.906904170E-1,-1.865209825E-2,-4.477435350E-2,7.068189979E-2
2.926948960E-1,-1.332578063E-2,-4.157856479E-2,6.642084569E-2
2.946993750E-1,-1.439104415E-2,-4.370909184E-2,5.683347583E-2
2.967038540E-1,-1.758683473E-2,-4.370909184E-2,6.322505325E-2
2.987083340E-1,-1.545630768E-2,-4.370909184E-2,5.896400288E-2
3.007128130E-1,-1.652157120E-2,-5.010067299E-2,5.789874122E-2
3.027172920E-1,-1.119525358E-2,-4.583961889E-2,5.363768712E-2
3.047217710E-1,-1.545630768E-2,-4.797014594E-2,5.896400288E-2
3.067262500E-1,-9.064726532E-3,-4.157856479E-2,5.576821044E-2
3.087307290E-1,-1.332578063E-2,-4.583961889E-2,6.322505325E-2
3.107352090E-1,-1.012999006E-2,-4.264383018E-2,5.576821044E-2
3.127396880E-1,-9.064726532E-3,-3.731751069E-2,6.109452993E-2
3.147441670E-1,-1.012999006E-2,-3.944803774E-2,6.109452993E-2
3.167486460E-1,-9.064726532E-3,-3.412172198E-2,6.642084569E-2
3.187531250E-1,-5.868935958E-3,-3.305645660E-2,6.642084569E-2
3.207576040E-1,-3.738408908E-3,-2.986066788E-2,6.642084569E-2
3.227620840E-1,-4.803672433E-3,-3.092592955E-2,7.281242311E-2
3.247665630E-1,-4.803672433E-3,-3.199119493E-2,7.174716145E-2
3.267710420E-1,-1.607881859E-3,-2.453434840E-2,6.748610735E-2
3.287755210E-1,5.226451904E-4,-2.240382135E-2,6.535558403E-2
3.307800000E-1,6.914226338E-3,-2.453434840E-2,6.535558403E-2
3.327844790E-1,4.783699289E-3,-2.027329430E-2,6.429031491E-2
3.347889590E-1,5.848962814E-3,-2.027329430E-2,5.789874122E-2
3.367934380E-1,3.718435764E-3,-1.601224020E-2,6.109452993E-2
3.387979170E-1,1.587908715E-3,-1.814276725E-2,5.896400288E-2
3.408023960E-1,1.587908715E-3,-2.133855969E-2,6.215979159E-2
3.428068750E-1,1.587908715E-3,-1.707750559E-2,5.470294878E-2
3.448113540E-1,4.783699289E-3,-1.707750559E-2,4.937663302E-2
3.468158340E-1,5.226451904E-4,-1.707750559E-2,5.257242173E-2
3.488203130E-1,-5.426183343E-4,-1.920803264E-2,5.150715634E-2
3.508247920E-1,-3.738408908E-3,-2.240382135E-2,4.405031353E-2
3.528292710E-1,1.587908715E-3,-2.133855969E-2,4.405031353E-2
3.548337500E-1,-9.064726532E-3,-2.773014084E-2,4.511557892E-2
3.568382290E-1,-6.934199482E-3,-3.092592955E-2,4.298504815E-2
3.588427090E-1,-1.012999006E-2,-3.199119493E-2,3.765873238E-2
3.608471880E-1,-1.012999006E-2,-3.731751069E-2,3.765873238E-2
3.628516670E-1,-1.012999006E-2,-3.731751069E-2,3.446293995E-2
3.648561460E-1,-1.226051711E-2,-4.264383018E-2,3.233241662E-2
3.668606250E-1,-1.545630768E-2,-4.690488428E-2,2.700609528E-2
3.688651040E-1,-1.971736178E-2,-5.329646170E-2,2.913662419E-2
3.708695840E-1,-2.184788883E-2,-5.223120004E-2,2.807135880E-2
3.728740630E-1,-2.397841588E-2,-5.542699248E-2,2.274504118E-2
3.748785420E-1,-2.397841588E-2,-5.862277746E-2,2.381030470E-2
3.768830210E-1,-2.823946998E-2,-6.288383156E-2,1.741872355E-2
3.788875000E-1,-3.250052407E-2,-6.607962400E-2,1.954925060E-2
3.808919790E-1,-3.036999702E-2,-7.353647053E-2,1.528819557E-2
3.828964590E-1,-3.250052407E-2,-7.779752463E-2,1.315766852E-2
3.849009380E-1,-3.143525869E-2,-8.631963283E-2,8.896614425E-3
3.869054170E-1,-3.250052407E-2,-8.525437117E-2,7.831350900E-3
3.889098960E-1,-3.463105112E-2,-8.951541781E-2,1.422293205E-2
3.909143750E-1,-3.782684356E-2,-9.484174103E-2,1.209240500E-2
3.929188540E-1,-3.889210522E-2,-9.377647936E-2,1.528819557E-2
3.949233340E-1,-3.569631651E-2,-9.697226435E-2,1.848398708E-2
3.969278130E-1,-3.782684356E-2,-9.484174103E-2,1.848398708E-2
3.989322920E-1,-3.676158190E-2,-9.697226435E-2,2.167977765E-2
4.009367710E-1,-3.889210522E-2,-9.697226435E-2,2.061451413E-2
4.029412500E-1,-3.569631651E-2,-1.022985876E-1,2.487556823E-2
4.049457290E-1,-3.356578946E-2,-1.086901650E-1,3.020188585E-2
4.069502090E-1,-3.463105112E-2,-9.910279512E-2,2.913662419E-2
4.089546880E-1,-3.250052407E-2,-1.086901650E-1,2.700609528E-2
4.109591670E-1,-3.569631651E-2,-1.108206958E-1,2.913662419E-2
4.129636460E-1,-3.143525869E-2,-1.108206958E-1,3.126715124E-2
4.149681250E-1,-3.250052407E-2,-1.172122732E-1,3.446293995E-2
4.169726040E-1,-3.250052407E-2,-1.150817424E-1,3.126715124E-2
4.189771360E-1,-3.036999702E-2,-1.182775348E-1,3.659347072E-2
4.209816670E-1,-3.143525869E-2,-1.214733273E-1,3.446293995E-2
4.229861980E-1,-2.717420645E-2,-1.225385889E-1,3.978925943E-2
4.249907290E-1,-2.823946998E-2,-1.267996430E-1,4.191978648E-2
4.269952610E-1,-2.610894293E-2,-1.289301813E-1,4.511557892E-2
4.289997920E-1,-2.397841588E-2,-1.331912279E-1,4.937663302E-2
4.310043230E-1,-2.078262530E-2,-1.342564970E-1,4.724610224E-2
4.330088540E-1,-1.758683473E-2,-1.310607046E-1,4.618084058E-2
4.350133860E-1,-2.078262530E-2,-1.374522895E-1,5.150715634E-2
4.370179170E-1,-1.652157120E-2,-1.406480819E-1,5.150715634E-2
4.390224480E-1,-1.545630768E-2,-1.438438743E-1,4.831136763E-2
4.410269790E-1,-1.332578063E-2,-1.459743977E-1,4.618084058E-2
4.430315110E-1,-1.012999006E-2,-1.544965059E-1,4.937663302E-2
4.450360420E-1,-7.999463007E-3,-1.544965059E-1,4.298504815E-2
4.470405730E-1,-1.012999006E-2,-1.555617750E-1,3.765873238E-2
4.490451040E-1,-7.999463007E-3,-1.608880907E-1,4.191978648E-2
4.510496360E-1,-1.012999006E-2,-1.640838832E-1,3.978925943E-2
4.530541670E-1,-7.999463007E-3,-1.672796756E-1,3.872399405E-2
4.550586980E-1,-1.119525358E-2,-1.747365147E-1,3.659347072E-2
4.570632290E-1,-1.012999006E-2,-1.789975762E-1,3.659347072E-2
4.590677610E-1,-7.999463007E-3,-1.811280996E-1,3.552820534E-2
4.610722920E-1,-1.012999006E-2,-1.885849386E-1,3.339767829E-2
4.630768230E-1,-1.545630768E-2,-1.939112544E-1,2.913662419E-2
4.650813540E-1,-1.226051711E-2,-1.992375851E-1,3.020188585E-2
4.670858860E-1,-1.439104415E-2,-2.045639008E-1,2.913662419E-2
4.690904170E-1,-1.865209825E-2,-2.130860090E-1,2.381030470E-2
4.710949480E-1,-1.971736178E-2,-2.173470557E-1,2.700609528E-2
4.730994790E-1,-2.291315235E-2,-2.237386405E-1,2.381030470E-2
4.751040110E-1,-2.610894293E-2,-2.333260179E-1,2.167977765E-2
4.771085420E-1,-2.717420645E-2,-2.354565412E-1,2.274504118E-2
4.791130210E-1,-2.823946998E-2,-2.407828569E-1,2.061451413E-2
4.811175000E-1,-3.036999702E-2,-2.514354885E-1,1.954925060E-2
4.831219790E-1,-3.782684356E-2,-2.546312809E-1,1.954925060E-2
4.851264590E-1,-3.889210522E-2,-2.631533742E-1,1.741872355E-2
4.871309380E-1,-4.634895176E-2,-2.716754675E-1,1.528819557E-2
4.891354170E-1,-5.167526752E-2,-2.855238914E-1,1.528819557E-2
4.911398960E-1,-5.167526752E-2,-2.897849381E-1,7.831350900E-3
4.931443750E-1,-5.593632162E-2,-3.025681078E-1,1.102714147E-2
4.951488540E-1,-6.126264483E-2,-3.078944385E-1,8.896614425E-3
4.971533340E-1,-6.765422225E-2,-3.174818158E-1,8.896614425E-3
4.991578130E-1,-6.445842981E-2,-3.249386549E-1,5.700823851E-3
5.011622920E-1,-6.871949136E-2,-3.355912864E-1,4.635560326E-3
5.031667710E-1,-7.298053801E-2,-3.398523331E-1,4.635560326E-3
5.051712500E-1,-7.724159956E-2,-3.494397104E-1,-6.907565985E-4
5.071757290E-1,-8.363317698E-2,-3.579618037E-1,-6.907565985E-4
5.091802090E-1,-8.256791532E-2,-3.675491810E-1,-6.907565985E-4
5.111846880E-1,-8.682896942E-2,-3.824628890E-1,-1.756020123E-3
5.131891670E-1,-9.215528518E-2,-3.877891898E-1,-1.240865607E-2
5.151936460E-1,-9.748160094E-2,-3.952460289E-1,-7.082337514E-3
5.171981250E-1,-1.028079242E-1,-4.112249911E-1,-1.240865607E-2
5.192026040E-1,-1.081342399E-1,-4.186818302E-1,-1.666970924E-2
5.212070840E-1,-1.113300323E-1,-4.282692075E-1,-1.560444664E-2
5.232115630E-1,-1.187868714E-1,-4.357260466E-1,-1.773497276E-2
5.252160420E-1,-1.241131872E-1,-4.421176314E-1,-1.880023628E-2
5.272205210E-1,-1.305047721E-1,-4.517050087E-1,-1.347391959E-2
5.292250000E-1,-1.347658336E-1,-4.591618478E-1,-1.560444664E-2
5.312294790E-1,-1.358310878E-1,-4.740755260E-1,-1.773497276E-2
5.332339590E-1,-1.454184651E-1,-4.879239798E-1,-1.773497276E-2
5.352384380E-1,-1.518100500E-1,-5.039029121E-1,-1.240865607E-2
5.372429170E-1,-1.571363658E-1,-5.145555735E-1,-1.347391959E-2
5.392473960E-1,-1.603321433E-1,-5.262734890E-1,-1.560444664E-2
5.412518750E-1,-1.645932049E-1,-5.284040570E-1,-1.347391959E-2
5.432563540E-1,-1.699195206E-1,-5.369261503E-1,-1.453918312E-2
5.452608340E-1,-1.731153131E-1,-5.433177352E-1,-1.453918312E-2
5.472653130E-1,-1.752458364E-1,-5.592966676E-1,-1.986549981E-2
5.492697920E-1,-1.827026904E-1,-5.710145831E-1,-1.134339254E-2
5.512742710E-1,-1.869637370E-1,-5.869935155E-1,-1.560444664E-2
5.532787500E-1,-1.858984828E-1,-5.965809226E-1,-1.666970924E-2
5.552832290E-1,-1.890942603E-1,-6.019071937E-1,-1.986549981E-2
5.572877090E-1,-1.869637370E-1,-6.157556772E-1,-2.199602686E-2
5.592921880E-1,-1.944205761E-1,-6.232125163E-1,-2.412655391E-2
5.612966670E-1,-1.933553219E-1,-6.338651180E-1,-2.838760801E-2
5.633011460E-1,-1.976163685E-1,-6.349303722E-1,-2.945287153E-2
5.653056250E-1,-1.976163685E-1,-6.434525251E-1,-3.051813506E-2
5.673101040E-1,-2.008121610E-1,-6.519746184E-1,-3.690971434E-2
5.693145840E-1,-1.965511143E-1,-6.573009491E-1,-4.223603383E-2
5.713190630E-1,-1.944205761E-1,-6.594314575E-1,-4.756234959E-2
5.733235420E-1,-1.965511143E-1,-6.679535508E-1,-4.969287664E-2
5.753280210E-1,-1.965511143E-1,-6.647577882E-1,-5.182340369E-2
5.773325000E-1,-1.986816376E-1,-6.668882966E-1,-6.034551188E-2
5.793369790E-1,-1.912247986E-1,-6.594314575E-1,-6.673710048E-2
5.813414590E-1,-1.912247986E-1,-6.636925340E-1,-6.673710048E-2
5.833459380E-1,-1.922900528E-1,-6.626272202E-1,-6.567183137E-2
5.853504170E-1,-1.901595294E-1,-6.615619659E-1,-7.206341624E-2
5.873548960E-1,-1.901595294E-1,-6.551703811E-1,-7.099814713E-2
5.893593750E-1,-1.858984828E-1,-6.583662033E-1,-7.525920868E-2
5.913638540E-1,-1.912247986E-1,-6.562356353E-1,-7.419393957E-2
5.933683340E-1,-1.848332137E-1,-6.541051269E-1,-7.845499367E-2
5.953728130E-1,-1.858984828E-1,-6.487787962E-1,-8.271604776E-2
5.973772920E-1,-1.890942603E-1,-6.434525251E-1,-8.165078610E-2
5.993817710E-1,-1.869637370E-1,-6.487787962E-1,-8.484657854E-2
6.013862500E-1,-1.858984828E-1,-6.445177794E-1,-9.123815596E-2
6.033907290E-1,-1.880290061E-1,-6.413219571E-1,-9.230342507E-2
6.053952090E-1,-1.901595294E-1,-6.391914487E-1,-9.123815596E-2
6.073996880E-1,-1.869637370E-1,-6.434525251E-1,-9.656447172E-2
6.094041670E-1,-1.869637370E-1,-6.413219571E-1,-9.869500250E-2
6.114086460E-1,-1.890942603E-1,-6.370609403E-1,-1.072171107E-1
6.134131250E-1,-1.901595294E-1,-6.349303722E-1,-1.114781648E-1
6.154176040E-1,-1.890942603E-1,-6.306693554E-1,-1.146739572E-1
6.174220840E-1,-1.869637370E-1,-6.232125163E-1,-1.157392189E-1
6.194265630E-1,-1.890942603E-1,-6.200166941E-1,-1.221307963E-1
6.214310420E-1,-1.901595294E-1,-6.136251092E-1,-1.274571121E-1
6.234355210E-1,-1.933553219E-1,-6.104293466E-1,-1.327834427E-1
6.254400000E-1,-1.944205761E-1,-6.136251092E-1,-1.391750127E-1
6.274444790E-1,-1.933553219E-1,-6.125598550E-1,-1.466318667E-1
6.294489590E-1,-1.827026904E-1,-6.242777705E-1,-1.668718755E-1
6.314534380E-1,-1.763111055E-1,-6.285387874E-1,-1.935034543E-1
6.334579170E-1,-1.741805822E-1,-6.317346096E-1,-2.105476707E-1
6.354623960E-1,-1.699195206E-1,-6.274735332E-1,-2.339834720E-1
6.374668750E-1,-1.795068979E-1,-6.125598550E-1,-2.435708344E-1
6.394713540E-1,-1.827026904E-1,-6.051030159E-1,-2.488971651E-1
6.414758340E-1,-1.880290061E-1,-5.997766852E-1,-2.542234659E-1
6.434803130E-1,-1.901595294E-1,-5.944503546E-1,-2.691371739E-1
6.454847920E-1,-1.901595294E-1,-6.008419394E-1,-2.829855978E-1
6.474892710E-1,-1.922900528E-1,-5.944503546E-1,-2.893771827E-1
6.494937500E-1,-2.008121610E-1,-5.795366764E-1,-2.915076911E-1
6.514982290E-1,-2.050732225E-1,-5.752756596E-1,-3.000298142E-1
6.535027090E-1,-2.008121610E-1,-5.742103457E-1,-3.064213991E-1
6.555071880E-1,-2.040079534E-1,-5.710145831E-1,-3.149434924E-1
6.575116670E-1,-2.093342692E-1,-5.720798373E-1,-3.160087466E-1
6.595161460E-1,-2.061384767E-1,-5.752756596E-1,-3.234656155E-1
6.615206250E-1,-2.061384767E-1,-5.742103457E-1,-3.277266622E-1
6.635251040E-1,-2.061384767E-1,-5.678187609E-1,-3.319877088E-1
6.655295840E-1,-2.125300616E-1,-5.688840747E-1,-3.277266622E-1
6.675340630E-1,-2.093342692E-1,-5.752756596E-1,-3.319877088E-1
6.695385420E-1,-2.103995383E-1,-5.763409138E-1,-3.319877088E-1
6.715430210E-1,-2.093342692E-1,-5.806019306E-1,-3.341182470E-1
6.735475000E-1,-2.061384767E-1,-5.912545919E-1,-3.351835012E-1
6.755519790E-1,-1.954858452E-1,-6.338651180E-1,-3.628803492E-1
6.775564590E-1,-1.944205761E-1,-6.604967117E-1,-3.873814046E-1
6.795609380E-1,-1.933553219E-1,-6.903240681E-1,-4.033603668E-1
6.815654170E-1,-1.912247986E-1,-7.297388315E-1,-4.161435366E-1
6.835698960E-1,-1.976163685E-1,-7.989809513E-1,-4.406445920E-1
6.855743750E-1,-2.018774301E-1,-8.565052152E-1,-4.523624778E-1
6.875788540E-1,-2.061384767E-1,-9.023115635E-1,-4.726024866E-1
6.895833340E-1,-2.072037458E-1,-9.406610131E-1,-4.917772412E-1
6.915878130E-1,-2.157258540E-1,-9.704884291E-1,-5.120172501E-1
6.935922920E-1,-2.231826931E-1,-1.001381040E0,-5.269309282E-1
6.955967710E-1,-2.295742780E-1,-1.021620989E0,-5.397140980E-1
6.976012500E-1,-2.412921786E-1,-1.040795684E0,-5.493014455E-1
6.996057290E-1,-2.487490177E-1,-1.056774616E0,-5.588888526E-1
7.016102090E-1,-2.540753484E-1,-1.078079939E0,-5.567583442E-1
7.036146880E-1,-2.572711110E-1,-1.102580905E0,-5.567583442E-1
7.056191670E-1,-2.572711110E-1,-1.121755719E0,-5.610193610E-1
7.076236460E-1,-2.583363652E-1,-1.139865160E0,-5.588888526E-1
7.096281250E-1,-2.572711110E-1,-1.160105228E0,-5.674109459E-1
7.116326040E-1,-2.551405728E-1,-1.192063093E0,-5.684762001E-1
7.136370840E-1,-2.572711110E-1,-1.216564178E0,-5.706067681E-1
7.156415630E-1,-2.540753484E-1,-1.237869382E0,-5.727372766E-1
7.176460420E-1,-2.487490177E-1,-1.252783060E0,-5.769983530E-1
7.196505210E-1,-2.434227020E-1,-1.275153637E0,-5.780636072E-1
7.216550000E-1,-2.402269095E-1,-1.297524214E0,-5.780636072E-1
7.236594790E-1,-2.370311320E-1,-1.312437892E0,-5.833898783E-1
7.256639590E-1,-2.327700704E-1,-1.324155807E0,-5.844551921E-1
7.276684380E-1,-2.263784856E-1,-1.339069486E0,-5.801941156E-1
7.296729690E-1,-2.242479622E-1,-1.353983164E0,-5.833898783E-1
7.316775000E-1,-2.167911232E-1,-1.364635825E0,-5.759330392E-1
7.336820310E-1,-2.125300616E-1,-1.379549503E0,-5.748677850E-1
7.356865630E-1,-2.072037458E-1,-1.392332673E0,-5.695414543E-1
7.376910940E-1,-2.072037458E-1,-1.405115843E0,-5.652804375E-1
7.396956250E-1,-1.965511143E-1,-1.407246351E0,-5.652804375E-1
7.417001560E-1,-1.901595294E-1,-1.409376860E0,-5.588888526E-1
7.437046880E-1,-1.848332137E-1,-1.415768385E0,-5.588888526E-1
7.457092190E-1,-1.752458364E-1,-1.428551555E0,-5.503667593E-1
7.477137500E-1,-1.720500439E-1,-1.439204216E0,-5.493014455E-1
7.497182810E-1,-1.688542664E-1,-1.443465233E0,-5.514320135E-1
7.517228130E-1,-1.635279357E-1,-1.455183148E0,-5.471709371E-1
7.537273440E-1,-1.613974124E-1,-1.462640047E0,-5.493014455E-1
7.557318750E-1,-1.528753042E-1,-1.475423217E0,-5.482361913E-1
7.577364060E-1,-1.443531960E-1,-1.485010624E0,-5.482361913E-1
7.597409380E-1,-1.432879269E-1,-1.498859048E0,-5.493014455E-1
7.617454690E-1,-1.337005645E-1,-1.515903234E0,-5.546277761E-1
7.637500000E-1,-1.347658336E-1,-1.534012675E0,-5.535625219E-1
7.657545310E-1,-1.273089796E-1,-1.551056862E0,-5.652804375E-1
7.677590630E-1,-1.219826639E-1,-1.573427439E0,-5.684762001E-1
7.697635940E-1,-1.177216098E-1,-1.596863270E0,-5.748677850E-1
7.717681250E-1,-1.230479255E-1,-1.626690626E0,-5.812593699E-1
7.737726560E-1,-1.166563481E-1,-1.650126457E0,-5.940425396E-1
7.757771880E-1,-1.102647632E-1,-1.679953814E0,-6.057604551E-1
7.777817190E-1,-1.113300323E-1,-1.707650661E0,-6.132172942E-1
7.797862500E-1,-1.091995016E-1,-1.742804289E0,-6.249352098E-1
7.817907810E-1,-1.070689708E-1,-1.779023290E0,-6.387836337E-1
7.837953130E-1,-1.038731858E-1,-1.810981154E0,-6.483709812E-1
7.857998440E-1,-9.854686260E-2,-1.842939138E0,-6.611541510E-1
7.878043750E-1,-1.006773934E-1,-1.879158020E0,-6.760678291E-1
7.898089060E-1,-9.215528518E-2,-1.914311767E0,-6.931120753E-1
7.918133860E-1,-8.682896942E-2,-1.949465513E0,-7.037646770E-1
7.938178650E-1,-8.469843864E-2,-1.979292870E0,-7.176131010E-1
7.958223440E-1,-7.830686122E-2,-2.012315989E0,-7.367878556E-1
7.978268230E-1,-7.191527635E-2,-2.044273853E0,-7.538320422E-1
7.998313020E-1,-6.339316815E-2,-2.080492973E0,-7.655499578E-1
8.018357810E-1,-5.700159073E-2,-2.114581347E0,-7.751373649E-1
8.038402610E-1,-5.167526752E-2,-2.149734974E0,-7.900510430E-1
8.058447400E-1,-4.741421342E-2,-2.183823347E0,-8.028342128E-1
8.078492190E-1,-3.782684356E-2,-2.212585449E0,-8.198783994E-1
8.098536980E-1,-3.250052407E-2,-2.241347551E0,-8.358573318E-1
8.118581770E-1,-2.610894293E-2,-2.276501417E0,-8.475752473E-1
8.138626560E-1,-1.865209825E-2,-2.305263519E0,-8.635542393E-1
8.158671360E-1,-1.652157120E-2,-2.338286638E0,-8.742068410E-1
8.178716150E-1,-7.999463007E-3,-2.364918232E0,-8.869900107E-1
8.198760940E-1,-3.738408908E-3,-2.396876097E0,-8.923163414E-1
8.218805730E-1,5.226451904E-4,-2.422442436E0,-9.040341973E-1
8.238850520E-1,7.979489863E-3,-2.445878267E0,-9.136216044E-1
8.258895310E-1,1.011001691E-2,-2.468248844E0,-9.200131893E-1
8.278940110E-1,1.011001691E-2,-2.488488913E0,-9.285352826E-1
8.298984900E-1,1.437107101E-2,-2.509793997E0,-9.402531981E-1
8.319029690E-1,1.863212511E-2,-2.522577286E0,-9.477100372E-1
8.339074480E-1,2.395844273E-2,-2.542817354E0,-9.594279528E-1
8.359119270E-1,2.502370626E-2,-2.558796167E0,-9.679500461E-1
8.379164060E-1,3.141528368E-2,-2.573709965E0,-9.796679616E-1
8.399208860E-1,3.354581445E-2,-2.585427761E0,-9.913858175E-1
8.419253650E-1,4.419844598E-2,-2.608863592E0,-9.999079704E-1
8.439298440E-1,4.739423841E-2,-2.628038406E0,-1.013756275E0
8.459343230E-1,5.485108495E-2,-2.640821457E0,-1.028669953E0
8.479388020E-1,5.804686993E-2,-2.655735254E0,-1.036126852E0
8.499432810E-1,6.976477057E-2,-2.675975084E0,-1.041453123E0
8.519477610E-1,7.402582467E-2,-2.688758373E0,-1.049975276E0
8.539522400E-1,7.935214043E-2,-2.705802679E0,-1.059562683E0
8.559567190E-1,8.574372530E-2,-2.721781492E0,-1.067019463E0
8.579611980E-1,9.107004106E-2,-2.743086815E0,-1.070215225E0
8.599656770E-1,9.959214926E-2,-2.763326883E0,-1.077672124E0
8.619701560E-1,1.027879417E-1,-2.786762476E0,-1.087259531E0
8.639746360E-1,1.123753116E-1,-2.810198307E0,-1.092585802E0
8.659791150E-1,1.177016273E-1,-2.829373121E0,-1.095781565E0
8.679835940E-1,1.187668890E-1,-2.852808952E0,-1.100042701E0
8.699880730E-1,1.240932047E-1,-2.878375292E0,-1.107499480E0
8.719925520E-1,1.326153129E-1,-2.898615360E0,-1.111760497E0
8.739970310E-1,1.390068978E-1,-2.911398411E0,-1.122413158E0
8.760015110E-1,1.411374211E-1,-2.925246954E0,-1.125608921E0
8.780059900E-1,1.485942751E-1,-2.936964750E0,-1.132000566E0
8.800104690E-1,1.549858451E-1,-2.946552038E0,-1.139457464E0
8.820149480E-1,1.549858451E-1,-2.956139565E0,-1.141587973E0
8.840194270E-1,1.549858451E-1,-2.959335327E0,-1.144783735E0
8.860239060E-1,1.592469066E-1,-2.963596344E0,-1.146914244E0
8.880283860E-1,1.624426991E-1,-2.966792107E0,-1.154371142E0
8.900328650E-1,1.667037457E-1,-2.974248886E0,-1.160762668E0
8.920373440E-1,1.698995382E-1,-2.973183632E0,-1.167154312E0
8.940418230E-1,1.730953306E-1,-2.973183632E0,-1.170350075E0
8.960463020E-1,1.741605997E-1,-2.968922615E0,-1.178872108E0
8.980507810E-1,1.773563921E-1,-2.974248886E0,-1.188459516E0
9.000552610E-1,1.826827079E-1,-2.980640650E0,-1.193785906E0
9.020597400E-1,1.858785003E-1,-2.984901667E0,-1.201242685E0
9.040642190E-1,1.858785003E-1,-2.995554209E0,-1.211895347E0
9.060686980E-1,1.848132312E-1,-3.008337498E0,-1.220417380E0
9.080731770E-1,1.848132312E-1,-3.022185802E0,-1.231070042E0
9.100776560E-1,1.933353394E-1,-3.036034346E0,-1.243853211E0
9.120821360E-1,1.922700703E-1,-3.053078413E0,-1.254505873E0
9.140866150E-1,1.922700703E-1,-3.069057465E0,-1.260897398E0
9.160910940E-1,1.965311319E-1,-3.077579498E0,-1.270484805E0
9.180955730E-1,1.954658628E-1,-3.091428041E0,-1.276876450E0
9.201000520E-1,1.954658628E-1,-3.105276346E0,-1.291790128E0
9.221045310E-1,1.901395470E-1,-3.122320652E0,-1.298181653E0
9.241090110E-1,1.986616552E-1,-3.131907940E0,-1.304573298E0
9.261134900E-1,1.944006085E-1,-3.142560720E0,-1.316291094E0
9.281179690E-1,1.944006085E-1,-3.152148008E0,-1.325878501E0
9.301224480E-1,1.954658628E-1,-3.164931059E0,-1.332270145E0
9.321269270E-1,1.954658628E-1,-3.170257568E0,-1.338661671E0
9.341314060E-1,1.922700703E-1,-3.173453331E0,-1.350379586E0
9.361358860E-1,1.922700703E-1,-3.175583839E0,-1.356771111E0
9.381403650E-1,1.890742779E-1,-3.177714348E0,-1.367423773E0
9.401448440E-1,1.880090237E-1,-3.177714348E0,-1.374880672E0
9.421493230E-1,1.848132312E-1,-3.174518585E0,-1.377011180E0
9.441538020E-1,1.858785003E-1,-3.170257568E0,-1.385533333E0
9.461582810E-1,1.816174388E-1,-3.162800550E0,-1.394055367E0
9.481627610E-1,1.816174388E-1,-3.158539534E0,-1.395120621E0
9.501672400E-1,1.784216464E-1,-3.162800550E0,-1.401512265E0
9.521717190E-1,1.741605997E-1,-3.159604788E0,-1.410034299E0
9.541761980E-1,1.656384915E-1,-3.139364719E0,-1.415360689E0
9.561806770E-1,1.667037457E-1,-3.120190144E0,-1.422817469E0
9.581851560E-1,1.624426991E-1,-3.111667871E0,-1.428143859E0
9.601896360E-1,1.624426991E-1,-3.111667871E0,-1.436665893E0
9.621941150E-1,1.635079682E-1,-3.113798380E0,-1.437731147E0
9.641985940E-1,1.581816375E-1,-3.114863873E0,-1.441992283E0
9.662030730E-1,1.549858451E-1,-3.120190144E0,-1.440927029E0
9.682075520E-1,1.507247984E-1,-3.121255398E0,-1.447318554E0
9.702120310E-1,1.453984827E-1,-3.122320652E0,-1.445188046E0
9.722165110E-1,1.379416287E-1,-3.127646923E0,-1.445188046E0
9.742209900E-1,1.368763745E-1,-3.130842686E0,-1.455840707E0
9.762254690E-1,1.358111054E-1,-3.123385906E0,-1.455840707E0
9.782299480E-1,1.315500587E-1,-3.102080584E0,-1.464362741E0
9.802344270E-1,1.294195354E-1,-3.078644753E0,-1.465427995E0
9.822389060E-1,1.262237430E-1,-3.066926956E0,-1.471819639E0
9.842433860E-1,1.240932047E-1,-3.048817396E0,-1.476080656E0
9.862478650E-1,1.251584738E-1,-3.041360617E0,-1.472884893E0
9.882523440E-1,1.272889972E-1,-3.022185802E0,-1.480341792E0
9.902568230E-1,1.240932047E-1,-3.008337498E0,-1.483537555E0
9.922613020E-1,1.283542663E-1,-2.989162683E0,-1.484602809E0
9.942657810E-1,1.251584738E-1,-2.976379395E0,-1.482472301E0
9.962702610E-1,1.230279505E-1,-2.955074310E0,-1.481407046E0
9.982747400E-1,1.155711040E-1,-2.931638479E0,-1.483537555E0
1.000279219E0,1.113100499E-1,-2.906072140E0,-1.485668063E0
1.002283698E0,1.102447808E-1,-2.876244783E0,-1.490994334E0
1.004288177E0,1.049184650E-1,-2.859200478E0,-1.486733317E0
1.006292656E0,9.852688760E-2,-2.847482681E0,-1.487798572E0
1.008297136E0,9.746162593E-2,-2.836829901E0,-1.498451233E0
1.010301615E0,9.107004106E-2,-2.829373121E0,-1.501646996E0
1.012306094E0,9.000477940E-2,-2.819785833E0,-1.505908012E0
1.014310573E0,8.893951774E-2,-2.810198307E0,-1.510169148E0
1.016315052E0,8.893951774E-2,-2.800611019E0,-1.526148081E0
1.018319531E0,9.320056438E-2,-2.784631968E0,-1.532539606E0
1.020324011E0,9.533109516E-2,-2.770783663E0,-1.538931251E0
1.022328490E0,9.639635682E-2,-2.755869865E0,-1.536800742E0
1.024332969E0,9.639635682E-2,-2.744152069E0,-1.541061759E0
1.026337448E0,9.852688760E-2,-2.715389967E0,-1.545322776E0
1.028341927E0,1.027879417E-1,-2.693019390E0,-1.541061759E0
1.030346406E0,1.059837341E-1,-2.665322542E0,-1.539996505E0
1.032350886E0,1.081142575E-1,-2.634429932E0,-1.536800742E0
1.034355365E0,1.059837341E-1,-2.612059355E0,-1.532539606E0
1.036359844E0,1.113100499E-1,-2.590754032E0,-1.534670115E0
1.038364323E0,1.113100499E-1,-2.579036236E0,-1.537865996E0
1.040368802E0,1.091795191E-1,-2.565187693E0,-1.534670115E0
1.042373281E0,1.123753116E-1,-2.551339388E0,-1.532539606E0
1.044377813E0,1.155711040E-1,-2.534295082E0,-1.531474352E0
1.046382344E0,1.177016273E-1,-2.509793997E0,-1.528278589E0
1.048386875E0,1.251584738E-1,-2.490619421E0,-1.528278589E0
1.050391406E0,1.272889972E-1,-2.472509861E0,-1.522952318E0
1.052395938E0,1.315500587E-1,-2.452269793E0,-1.517625928E0
1.054400469E0,1.379416287E-1,-2.433095217E0,-1.512299657E0
1.056405000E0,1.368763745E-1,-2.413920403E0,-1.504842758E0
1.058409531E0,1.411374211E-1,-2.389419317E0,-1.502712250E0
1.060414063E0,1.453984827E-1,-2.371309757E0,-1.496320724E0
1.062418594E0,1.464637518E-1,-2.357461452E0,-1.494190216E0
1.064423125E0,1.507247984E-1,-2.344678164E0,-1.485668063E0
1.066427656E0,1.496595293E-1,-2.336156130E0,-1.484602809E0
1.068432188E0,1.507247984E-1,-2.325503588E0,-1.472884893E0
1.070436719E0,1.517900676E-1,-2.311655045E0,-1.468623877E0
1.072441250E0,1.507247984E-1,-2.293545485E0,-1.463297486E0
1.074445781E0,1.517900676E-1,-2.278631926E0,-1.456905961E0
1.076450313E0,1.475290060E-1,-2.264783382E0,-1.450514317E0
1.078454844E0,1.453984827E-1,-2.254130840E0,-1.446253300E0
1.080459375E0,1.411374211E-1,-2.242413044E0,-1.438796401E0
1.082463906E0,1.400721669E-1,-2.230695009E0,-1.434535384E0
1.084468438E0,1.336805820E-1,-2.215781450E0,-1.431339622E0
1.086472969E0,1.304847896E-1,-2.197671890E0,-1.429209113E0
1.088477500E0,1.315500587E-1,-2.180627584E0,-1.422817469E0
1.090482031E0,1.251584738E-1,-2.158257008E0,-1.423882723E0
1.092486563E0,1.262237430E-1,-2.141212940E0,-1.421752214E0
1.094491094E0,1.208974272E-1,-2.120972872E0,-1.421752214E0
1.096495625E0,1.198321581E-1,-2.098602295E0,-1.418556452E0
1.098500156E0,1.198321581E-1,-2.076231718E0,-1.416425943E0
1.100504688E0,1.177016273E-1,-2.051730871E0,-1.416425943E0
1.102509219E0,1.155711040E-1,-2.027229786E0,-1.411099553E0
1.104513750E0,1.091795191E-1,-2.002728701E0,-1.408969045E0
1.106518229E0,1.049184650E-1,-1.980358124E0,-1.405773282E0
1.108522709E0,1.017226726E-1,-1.951596022E0,-1.404708028E0
1.110527188E0,1.027879417E-1,-1.930290699E0,-1.404708028E0
1.112531667E0,9.852688760E-2,-1.901528597E0,-1.396185875E0
1.114536146E0,9.320056438E-2,-1.877027512E0,-1.397251129E0
1.116540625E0,9.320056438E-2,-1.850395918E0,-1.392990112E0
1.118545104E0,9.639635682E-2,-1.823764324E0,-1.389794350E0
1.120549584E0,9.213530272E-2,-1.805654883E0,-1.388729095E0
1.122554063E0,9.213530272E-2,-1.773697019E0,-1.390859604E0
1.124558542E0,9.213530272E-2,-1.747065425E0,-1.385533333E0
1.126563021E0,9.426583350E-2,-1.722564340E0,-1.385533333E0
1.128567500E0,9.746162593E-2,-1.695932746E0,-1.380206943E0
1.130571979E0,9.533109516E-2,-1.669301152E0,-1.380206943E0
1.132576459E0,9.533109516E-2,-1.641604304E0,-1.372750163E0
1.134580938E0,9.533109516E-2,-1.611776948E0,-1.367423773E0
1.136585417E0,9.959214926E-2,-1.584080100E0,-1.364228010E0
1.138589896E0,9.959214926E-2,-1.554252744E0,-1.357836485E0
1.140594375E0,9.959214926E-2,-1.527621150E0,-1.353575349E0
1.142598854E0,9.959214926E-2,-1.507381082E0,-1.348249078E0
1.144603334E0,9.852688760E-2,-1.485010624E0,-1.335465908E0
1.146607813E0,1.017226726E-1,-1.454117894E0,-1.334400654E0
1.148612292E0,1.038532034E-1,-1.428551555E0,-1.324813247E0
1.150616771E0,1.017226726E-1,-1.402985215E0,-1.317356467E0
1.152621250E0,1.049184650E-1,-1.380614758E0,-1.308834314E0
1.154625729E0,1.017226726E-1,-1.352917910E0,-1.301377416E0
1.156630209E0,1.070489958E-1,-1.331612587E0,-1.296051145E0
1.158634688E0,1.038532034E-1,-1.306046247E0,-1.285398483E0
1.160639167E0,1.049184650E-1,-1.283675790E0,-1.275811195E0
1.162643646E0,1.070489958E-1,-1.258109450E0,-1.272615314E0
1.164648125E0,1.017226726E-1,-1.231477857E0,-1.261962652E0
1.166652604E0,1.006574109E-1,-1.211237788E0,-1.255571127E0
1.168657084E0,9.320056438E-2,-1.186736822E0,-1.249179602E0
1.170661563E0,9.213530272E-2,-1.167562008E0,-1.242787957E0
1.172666042E0,8.893951774E-2,-1.147322059E0,-1.241722703E0
1.174670521E0,8.893951774E-2,-1.131343126E0,-1.237461686E0
1.176675000E0,8.680898696E-2,-1.114298820E0,-1.233200550E0
1.178679479E0,7.828687876E-2,-1.097254634E0,-1.231070042E0
1.180683959E0,8.148267120E-2,-1.067427278E0,-1.227874279E0
1.182688438E0,7.935214043E-2,-1.048252463E0,-1.221482754E0
1.184692917E0,7.722161710E-2,-1.023751497E0,-1.218286872E0
1.186697396E0,7.722161710E-2,-1.007772565E0,-1.208699584E0
1.188701875E0,7.402582467E-2,-9.854021072E-1,-1.208699584E0
1.190706354E0,7.296056300E-2,-9.694231153E-1,-1.203373194E0
1.192710834E0,7.083003223E-2,-9.470525980E-1,-1.194851160E0
1.194715313E0,7.189530134E-2,-9.268125892E-1,-1.187394261E0
1.196719792E0,7.509108633E-2,-9.108336568E-1,-1.183133245E0
1.198724271E0,7.189530134E-2,-8.895283937E-1,-1.174611092E0
1.200728750E0,7.189530134E-2,-8.735494018E-1,-1.167154312E0
1.202733229E0,7.296056300E-2,-8.628968000E-1,-1.156501651E0
1.204737709E0,7.509108633E-2,-8.490483761E-1,-1.151175261E0
1.206742188E0,7.615634799E-2,-8.394609690E-1,-1.136261582E0
1.208746667E0,7.615634799E-2,-8.245472908E-1,-1.133065820E0
1.210751146E0,7.083003223E-2,-8.138946891E-1,-1.116021633E0
1.212755625E0,7.402582467E-2,-8.053725362E-1,-1.107499480E0
1.214760104E0,7.722161710E-2,-7.861977816E-1,-1.096846819E0
1.216764584E0,7.722161710E-2,-7.819367647E-1,-1.084063649E0
1.218769063E0,7.722161710E-2,-7.755451798E-1,-1.068084717E0
1.220773542E0,8.254793286E-2,-7.638272643E-1,-1.057432175E0
1.222778021E0,8.361319453E-2,-7.542399168E-1,-1.048910022E0
1.224782500E0,8.361319453E-2,-7.489135861E-1,-1.035061598E0
1.226786979E0,8.254793286E-2,-7.457178235E-1,-1.022278428E0
1.228791459E0,8.254793286E-2,-7.393262386E-1,-1.007364750E0
1.230795938E0,8.467845619E-2,-7.329346538E-1,-9.913858175E-1
1.232800417E0,8.787424862E-2,-7.254778147E-1,-9.786026478E-1
1.234804896E0,8.574372530E-2,-7.201514840E-1,-9.658195376E-1
1.236809375E0,8.680898696E-2,-7.190862298E-1,-9.562321305E-1
1.238813854E0,9.000477940E-2,-7.169556618E-1,-9.402531981E-1
1.240818334E0,9.107004106E-2,-7.116293907E-1,-9.296005368E-1
1.242822813E0,8.893951774E-2,-7.052378058E-1,-9.157521129E-1
1.244827292E0,9.000477940E-2,-7.094988227E-1,-9.061647654E-1
1.246831771E0,9.320056438E-2,-7.041724920E-1,-8.912510872E-1
1.248836250E0,9.639635682E-2,-7.031072378E-1,-8.816636801E-1
1.250840729E0,9.852688760E-2,-7.009767294E-1,-8.678152561E-1
1.252845209E0,9.959214926E-2,-6.988462210E-1,-8.603584170E-1
1.254849688E0,9.852688760E-2,-7.020419836E-1,-8.497058153E-1
1.256854167E0,9.959214926E-2,-6.977809668E-1,-8.390531540E-1
1.258858646E0,1.038532034E-1,-6.977809668E-1,-8.294658065E-1
1.260863125E0,1.017226726E-1,-7.009767294E-1,-8.145520687E-1
1.262867604E0,9.959214926E-2,-6.988462210E-1,-8.070952296E-1
1.264872084E0,1.038532034E-1,-6.924546361E-1,-7.975078821E-1
1.266876563E0,1.059837341E-1,-6.892588139E-1,-7.815289497E-1
1.268881042E0,1.081142575E-1,-6.903240681E-1,-7.719415426E-1
1.270885521E0,1.123753116E-1,-6.860630512E-1,-7.623541951E-1
1.272890000E0,1.145058423E-1,-6.871283054E-1,-7.463752031E-1
1.274894479E0,1.198321581E-1,-6.818019748E-1,-7.399836183E-1
1.276898959E0,1.230279505E-1,-6.818019748E-1,-7.293310165E-1
1.278903438E0,1.272889972E-1,-6.775409579E-1,-7.186783552E-1
1.280907917E0,1.294195354E-1,-6.775409579E-1,-7.005689144E-1
1.282912396E0,1.304847896E-1,-6.679535508E-1,-6.835246682E-1
1.284916875E0,1.326153129E-1,-6.647577882E-1,-6.760678291E-1
1.286921354E0,1.358111054E-1,-6.583662033E-1,-6.611541510E-1
1.288925834E0,1.422026902E-1,-6.509093642E-1,-6.494362354E-1
1.290930313E0,1.411374211E-1,-6.519746184E-1,-6.366530657E-1
1.292934792E0,1.464637518E-1,-6.487787962E-1,-6.270657182E-1
1.294939271E0,1.507247984E-1,-6.434525251E-1,-6.142825484E-1
1.296943750E0,1.539205909E-1,-6.370609403E-1,-6.004341245E-1
1.298948229E0,1.613774300E-1,-6.338651180E-1,-5.876509547E-1
1.300952709E0,1.667037457E-1,-6.296041012E-1,-5.706067681E-1
1.302957188E0,1.688342839E-1,-6.264082789E-1,-5.588888526E-1
1.304961667E0,1.720300615E-1,-6.232125163E-1,-5.429099202E-1
1.306966146E0,1.773563921E-1,-6.221472025E-1,-5.237351656E-1
1.308970625E0,1.773563921E-1,-6.210819483E-1,-5.088214874E-1
1.310975104E0,1.848132312E-1,-6.125598550E-1,-4.939077795E-1
1.312979584E0,1.848132312E-1,-6.061682701E-1,-4.757982790E-1
1.314984063E0,1.901395470E-1,-6.040377617E-1,-4.598193467E-1
1.316988542E0,1.901395470E-1,-5.965809226E-1,-4.449056387E-1
1.318993021E0,1.944006085E-1,-5.869935155E-1,-4.278614223E-1
1.320997500E0,2.007921785E-1,-5.816671848E-1,-4.129477441E-1
1.323001979E0,1.997269243E-1,-5.806019306E-1,-3.948382735E-1
1.325006459E0,2.029227167E-1,-5.742103457E-1,-3.831203580E-1
1.327010938E0,2.082490325E-1,-5.635577440E-1,-3.714024723E-1
1.329015417E0,2.125100791E-1,-5.614272356E-1,-3.586193025E-1
1.331019896E0,2.125100791E-1,-5.486440659E-1,-3.479666710E-1
1.333024375E0,2.157058716E-1,-5.401219130E-1,-3.362487555E-1
1.335028854E0,2.178363949E-1,-5.347956419E-1,-3.245308697E-1
1.337033334E0,2.167711407E-1,-5.294693112E-1,-3.170740306E-1
1.339037813E0,2.189016640E-1,-5.209472179E-1,-3.053561151E-1
1.341042292E0,2.242279798E-1,-5.124250650E-1,-2.989645600E-1
1.343046771E0,2.210321873E-1,-5.028376579E-1,-2.904424369E-1
1.345051250E0,2.231627107E-1,-4.889892340E-1,-2.829855978E-1
1.347055729E0,2.252932489E-1,-4.794018567E-1,-2.765940130E-1
1.349060209E0,2.263585031E-1,-4.762060642E-1,-2.659413815E-1
1.351064688E0,2.274237722E-1,-4.591618478E-1,-2.616803348E-1
1.353069219E0,2.284890413E-1,-4.538355470E-1,-2.531582117E-1
1.355073750E0,2.295542955E-1,-4.431828856E-1,-2.435708344E-1
1.357078281E0,2.327500880E-1,-4.367913008E-1,-2.382445186E-1
1.359082813E0,2.348806113E-1,-4.229428768E-1,-2.318529487E-1
1.361087344E0,2.412721962E-1,-4.186818302E-1,-2.243960947E-1
1.363091875E0,2.402069271E-1,-4.112249911E-1,-2.233308405E-1
1.365096406E0,2.476637810E-1,-4.005723596E-1,-2.169392556E-1
1.367100938E0,2.540553808E-1,-3.899197280E-1,-2.180045247E-1
1.369105469E0,2.572511733E-1,-3.813976049E-1,-2.126781940E-1
1.371110000E0,2.647080123E-1,-3.728755116E-1,-2.148087323E-1
1.373114531E0,2.742953897E-1,-3.664839268E-1,-2.062866241E-1
1.375119063E0,2.785564363E-1,-3.537007570E-1,-2.137434632E-1
1.377123594E0,2.817522287E-1,-3.505049646E-1,-2.094824016E-1
1.379128125E0,2.934701443E-1,-3.387870789E-1,-2.094824016E-1
1.381132656E0,2.966659367E-1,-3.302649558E-1,-2.084171474E-1
1.383137188E0,3.041227758E-1,-3.217428625E-1,-2.137434632E-1
1.385141719E0,3.073185682E-1,-3.142860234E-1,-2.148087323E-1
1.387146250E0,3.158406615E-1,-3.078944385E-1,-2.158739865E-1
1.389150781E0,3.222322464E-1,-2.961765230E-1,-2.190697789E-1
1.391155313E0,3.264933228E-1,-2.865891457E-1,-2.233308405E-1
1.393159844E0,3.339501619E-1,-2.844586372E-1,-2.275918871E-1
1.395164375E0,3.382112086E-1,-2.716754675E-1,-2.265266180E-1
1.397168906E0,3.446027935E-1,-2.631533742E-1,-2.307876796E-1
1.399173438E0,3.531248868E-1,-2.588923275E-1,-2.382445186E-1
1.401177969E0,3.552554250E-1,-2.556965351E-1,-2.393097878E-1
1.403182500E0,3.595164716E-1,-2.503702343E-1,-2.435708344E-1
1.405187031E0,3.659080565E-1,-2.450439036E-1,-2.478318959E-1
1.407191563E0,3.712343872E-1,-2.386523336E-1,-2.531582117E-1
1.409196094E0,3.722996414E-1,-2.333260179E-1,-2.563540041E-1
1.411200625E0,3.786912262E-1,-2.322607487E-1,-2.616803348E-1
1.413205156E0,3.818870187E-1,-2.269344330E-1,-2.648761272E-1
1.415209636E0,3.829522729E-1,-2.237386405E-1,-2.680718899E-1
1.417214115E0,3.872133195E-1,-2.194775939E-1,-2.744634748E-1
1.419218594E0,3.893438578E-1,-2.162818015E-1,-2.787245512E-1
1.421223073E0,3.893438578E-1,-2.173470557E-1,-2.893771827E-1
1.423227552E0,3.850828111E-1,-2.109554708E-1,-2.925729752E-1
1.425232031E0,3.936049044E-1,-2.141512632E-1,-2.968340218E-1
1.427236511E0,3.914743960E-1,-2.130860090E-1,-3.010950685E-1
1.429240990E0,3.914743960E-1,-2.162818015E-1,-3.064213991E-1
1.431245469E0,3.925396502E-1,-2.152165323E-1,-3.138782382E-1
1.433249948E0,3.904091120E-1,-2.184123248E-1,-3.149434924E-1
1.435254427E0,3.893438578E-1,-2.258691639E-1,-3.181392848E-1
1.437258906E0,3.861480653E-1,-2.301302254E-1,-3.224003315E-1
1.439263386E0,3.840175271E-1,-2.354565412E-1,-3.277266622E-1
1.441267865E0,3.776259720E-1,-2.450439036E-1,-3.287919164E-1
1.443272344E0,3.786912262E-1,-2.535660267E-1,-3.341182470E-1
1.445276823E0,3.754954338E-1,-2.642186284E-1,-3.394445479E-1
1.447281302E0,3.722996414E-1,-2.684796751E-1,-3.383792937E-1
1.449285781E0,3.701691031E-1,-2.759365141E-1,-3.437056243E-1
1.451290261E0,3.659080565E-1,-2.770017982E-1,-3.479666710E-1
1.453294740E0,3.595164716E-1,-2.919154763E-1,-3.500971794E-1
1.455299219E0,3.573859632E-1,-3.025681078E-1,-3.564887643E-1
1.457303698E0,3.584512174E-1,-3.100249469E-1,-3.596845567E-1
1.459308177E0,3.531248868E-1,-3.196123242E-1,-3.650108874E-1
1.461312656E0,3.520596325E-1,-3.302649558E-1,-3.660761416E-1
1.463317136E0,3.477985859E-1,-3.473091722E-1,-3.745982647E-1
1.465321615E0,3.499290943E-1,-3.568965495E-1,-3.820551038E-1
1.467326094E0,3.488638401E-1,-3.707449734E-1,-3.895119429E-1
1.469330573E0,3.467333019E-1,-3.835281432E-1,-3.937729895E-1
1.471335052E0,3.446027935E-1,-3.984418213E-1,-3.990993202E-1
1.473339531E0,3.456680477E-1,-4.112249911E-1,-4.065561593E-1
1.475344011E0,3.424722552E-1,-4.229428768E-1,-4.118824899E-1
1.477348490E0,3.371459544E-1,-4.346607924E-1,-4.182740450E-1
1.479352969E0,3.371459544E-1,-4.495744705E-1,-4.204045832E-1
1.481357448E0,3.371459544E-1,-4.644881785E-1,-4.299919605E-1
1.483361927E0,3.307543695E-1,-4.783366024E-1,-4.353182912E-1
1.485366406E0,3.318196237E-1,-4.900544882E-1,-4.395793378E-1
1.487370886E0,3.286238313E-1,-5.070987344E-1,-4.449056387E-1
1.489375365E0,3.286238313E-1,-5.177513957E-1,-4.544930160E-1
1.491379844E0,3.254280388E-1,-5.326650739E-1,-4.566235542E-1
1.493384323E0,3.254280388E-1,-5.486440659E-1,-4.566235542E-1
1.495388802E0,3.254280388E-1,-5.635577440E-1,-4.608846009E-1
1.497393281E0,3.243627846E-1,-5.710145831E-1,-4.662109315E-1
1.499397761E0,3.254280388E-1,-5.827324986E-1,-4.715372324E-1
1.501402240E0,3.211669922E-1,-5.923198462E-1,-4.726024866E-1
1.503406719E0,3.232975304E-1,-6.061682701E-1,-4.800593555E-1
1.505411198E0,3.169059455E-1,-6.200166941E-1,-4.821898639E-1
1.507415677E0,3.137101531E-1,-6.232125163E-1,-4.864509106E-1
1.509420156E0,3.147754073E-1,-6.381261945E-1,-4.864509106E-1
1.511424636E0,3.073185682E-1,-6.466482878E-1,-4.971035719E-1
1.513429115E0,3.051880300E-1,-6.487787962E-1,-5.002993941E-1
1.515433594E0,3.051880300E-1,-6.541051269E-1,-5.056256652E-1
1.517438073E0,3.041227758E-1,-6.594314575E-1,-5.098867416E-1
1.519442552E0,2.987964451E-1,-6.594314575E-1,-5.098867416E-1
1.521447031E0,2.987964451E-1,-6.583662033E-1,-5.184088349E-1
1.523451511E0,2.966659367E-1,-6.658230424E-1,-5.194740891E-1
1.525455990E0,2.956006825E-1,-6.690188050E-1,-5.248004198E-1
1.527460469E0,2.902743518E-1,-6.807367206E-1,-5.290614963E-1
1.529464948E0,2.881438136E-1,-6.871283054E-1,-5.311920047E-1
1.531469427E0,2.892090976E-1,-6.913893819E-1,-5.354530215E-1
1.533473906E0,2.849480212E-1,-6.967156529E-1,-5.386488438E-1
1.535478386E0,2.838827670E-1,-7.041724920E-1,-5.354530215E-1
1.537482865E0,2.828175128E-1,-7.031072378E-1,-5.418446064E-1
1.539487344E0,2.817522287E-1,-7.073683143E-1,-5.354530215E-1
1.541491823E0,2.806869745E-1,-7.158904076E-1,-5.375835896E-1
1.543496302E0,2.817522287E-1,-7.254778147E-1,-5.354530215E-1
1.545500781E0,2.806869745E-1,-7.286735773E-1,-5.311920047E-1
1.547505261E0,2.828175128E-1,-7.329346538E-1,-5.311920047E-1
1.549509740E0,2.828175128E-1,-7.414567471E-1,-5.279961824E-1
1.551514219E0,2.828175128E-1,-7.457178235E-1,-5.269309282E-1
1.553518698E0,2.796217203E-1,-7.542399168E-1,-5.216045976E-1
1.555523177E0,2.817522287E-1,-7.585009336E-1,-5.184088349E-1
1.557527656E0,2.828175128E-1,-7.616967559E-1,-5.152130127E-1
1.559532136E0,2.785564363E-1,-7.659578323E-1,-5.152130127E-1
1.561536615E0,2.753606737E-1,-7.659578323E-1,-5.109519958E-1
1.563541094E0,2.732301354E-1,-7.659578323E-1,-5.141477585E-1
1.565545573E0,2.742953897E-1,-7.691535950E-1,-5.088214874E-1
1.567550052E0,2.689690888E-1,-7.680883408E-1,-5.045604110E-1
1.569554531E0,2.604469657E-1,-7.659578323E-1,-5.066909194E-1
1.571559011E0,2.647080123E-1,-7.616967559E-1,-5.034951568E-1
1.573563490E0,2.636427581E-1,-7.606315017E-1,-5.056256652E-1
1.575567969E0,2.604469657E-1,-7.499788404E-1,-5.024299026E-1
1.577572448E0,2.551206648E-1,-7.446525097E-1,-5.034951568E-1
1.579576927E0,2.497943193E-1,-7.414567471E-1,-5.056256652E-1
1.581581406E0,2.455332726E-1,-7.276083231E-1,-5.066909194E-1
1.583585886E0,2.412721962E-1,-7.169556618E-1,-5.056256652E-1
1.585590365E0,2.370111495E-1,-7.052378058E-1,-5.034951568E-1
1.587594844E0,2.295542955E-1,-6.849977970E-1,-5.024299026E-1
1.589599323E0,2.231627107E-1,-6.668882966E-1,-4.939077795E-1
1.591603802E0,2.220974565E-1,-6.551703811E-1,-4.907119870E-1
1.593608281E0,2.125100791E-1,-6.434525251E-1,-4.843204021E-1
1.595612761E0,2.103795558E-1,-6.178861856E-1,-4.832551479E-1
1.597617240E0,2.007921785E-1,-5.891240835E-1,-4.704719782E-1
1.599621719E0,1.986616552E-1,-5.678187609E-1,-4.683414400E-1
1.601626198E0,1.912048161E-1,-5.486440659E-1,-4.619498551E-1
1.603630677E0,1.880090237E-1,-5.262734890E-1,-4.502319694E-1
1.605635156E0,1.805521846E-1,-5.081639886E-1,-4.449056387E-1
1.607639636E0,1.794869155E-1,-4.857934415E-1,-4.374487996E-1
1.609644115E0,1.709648073E-1,-4.676839709E-1,-4.257309139E-1
1.611648594E0,1.720300615E-1,-4.495744705E-1,-4.214698374E-1
1.613653073E0,1.730953306E-1,-4.346607924E-1,-4.108172059E-1
1.615657552E0,1.698995382E-1,-4.144207835E-1,-4.033603668E-1
1.617662031E0,1.709648073E-1,-3.963113129E-1,-4.001645744E-1
1.619666511E0,1.741605997E-1,-3.803323507E-1,-3.927077353E-1
1.621670990E0,1.720300615E-1,-3.600923419E-1,-3.873814046E-1
1.623675469E0,1.688342839E-1,-3.494397104E-1,-3.799245656E-1
1.625679948E0,1.720300615E-1,-3.291997015E-1,-3.756635189E-1
1.627684427E0,1.709648073E-1,-3.164165318E-1,-3.703371882E-1
1.629688906E0,1.730953306E-1,-3.004375696E-1,-3.714024723E-1
1.631693386E0,1.762911230E-1,-2.855238914E-1,-3.628803492E-1
1.633697865E0,1.784216464E-1,-2.695449293E-1,-3.628803492E-1
1.635702344E0,1.805521846E-1,-2.578270733E-1,-3.586193025E-1
1.637706823E0,1.805521846E-1,-2.450439036E-1,-3.628803492E-1
1.639711302E0,1.805521846E-1,-2.311954796E-1,-3.575540483E-1
1.641715781E0,1.837479621E-1,-2.141512632E-1,-3.586193025E-1
1.643720261E0,1.805521846E-1,-1.992375851E-1,-3.575540483E-1
1.645724740E0,1.826827079E-1,-1.821933687E-1,-3.554235101E-1
1.647729219E0,1.784216464E-1,-1.747365147E-1,-3.511624634E-1
1.649733698E0,1.816174388E-1,-1.555617750E-1,-3.532929718E-1
1.651738177E0,1.794869155E-1,-1.395828128E-1,-3.543582559E-1
1.653742656E0,1.773563921E-1,-1.225385889E-1,-3.522277176E-1
1.655747136E0,1.741605997E-1,-1.076249033E-1,-3.479666710E-1
1.657751667E0,1.720300615E-1,-9.803752601E-2,-3.437056243E-1
1.659756198E0,1.730953306E-1,-8.205857873E-2,-3.415750861E-1
1.661760729E0,1.741605997E-1,-6.714488566E-2,-3.351835012E-1
1.663765261E0,1.730953306E-1,-5.649225414E-2,-3.277266622E-1
1.665769792E0,1.698995382E-1,-4.157856479E-2,-3.160087466E-1
1.667774323E0,1.698995382E-1,-3.412172198E-2,-3.064213991E-1
1.669778854E0,1.688342839E-1,-2.773014084E-2,-3.000298142E-1
1.671783386E0,1.667037457E-1,-2.027329430E-2,-2.861813903E-1
1.673787917E0,1.613774300E-1,-2.133855969E-2,-2.680718899E-1
1.675792448E0,1.592469066E-1,-1.175118703E-2,-2.542234659E-1
1.677796979E0,1.624426991E-1,-3.229078837E-3,-2.382445186E-1
1.679801511E0,1.560511142E-1,-3.328826278E-5,-2.254613638E-1
1.681806042E0,1.571163833E-1,4.227765836E-3,-2.105476707E-1
1.683810573E0,1.528553218E-1,8.488819934E-3,-1.935034543E-1
1.685815104E0,1.549858451E-1,1.594566181E-2,-1.849813461E-1
1.687819636E0,1.549858451E-1,1.807619259E-2,-1.658066064E-1
1.689824167E0,1.528553218E-1,2.446777374E-2,-1.498276591E-1
1.691828698E0,1.475290060E-1,2.446777374E-2,-1.370444894E-1
1.693833229E0,1.517900676E-1,2.659830451E-2,-1.253265887E-1
1.695837761E0,1.528553218E-1,3.405514359E-2,-1.157392189E-1
1.697842292E0,1.507247984E-1,3.298988193E-2,-1.029560566E-1
1.699846823E0,1.507247984E-1,3.405514359E-2,-9.656447172E-2
1.701851354E0,1.485942751E-1,4.151199013E-2,-8.484657854E-2
1.703855886E0,1.475290060E-1,4.257725179E-2,-8.165078610E-2
1.705860417E0,1.443332136E-1,4.044672847E-2,-7.312867790E-2
1.707864948E0,1.390068978E-1,4.151199013E-2,-6.886762381E-2
1.709869479E0,1.379416287E-1,4.044672847E-2,-6.673710048E-2
1.711874011E0,1.336805820E-1,4.790357500E-2,-6.034551188E-2
1.713878542E0,1.315500587E-1,4.683831334E-2,-5.821498483E-2
1.715883073E0,1.283542663E-1,4.896883667E-2,-5.075814202E-2
1.717887604E0,1.262237430E-1,5.322989076E-2,-5.288866535E-2
1.719892084E0,1.198321581E-1,5.429515243E-2,-4.969287664E-2
1.721896563E0,1.166363657E-1,5.429515243E-2,-4.436655715E-2
1.723901042E0,1.123753116E-1,5.429515243E-2,-4.543182254E-2
1.725905521E0,1.113100499E-1,5.216462910E-2,-4.330129549E-2
1.727910000E0,1.070489958E-1,5.216462910E-2,-4.223603383E-2
1.729914479E0,1.038532034E-1,5.109935999E-2,-4.330129549E-2
1.731918959E0,1.027879417E-1,5.429515243E-2,-4.117076844E-2
1.733923438E0,1.006574109E-1,5.536042154E-2,-4.330129549E-2
1.735927917E0,9.959214926E-2,5.216462910E-2,-4.117076844E-2
1.737932396E0,9.959214926E-2,4.790357500E-2,-3.904024139E-2
1.739936875E0,9.852688760E-2,5.109935999E-2,-3.690971434E-2
1.741941354E0,9.320056438E-2,5.109935999E-2,-3.797497973E-2
1.743945834E0,9.320056438E-2,5.216462910E-2,-3.477918729E-2
1.745950313E0,9.426583350E-2,5.322989076E-2,-3.690971434E-2
1.747954792E0,9.320056438E-2,5.322989076E-2,-3.371392936E-2
1.749959271E0,9.213530272E-2,6.388252974E-2,-3.690971434E-2
1.751963750E0,8.893951774E-2,6.175199896E-2,-3.371392936E-2
1.753968229E0,9.000477940E-2,6.281726062E-2,-2.732234448E-2
1.755972709E0,8.787424862E-2,6.601305306E-2,-2.625708096E-2
1.757977188E0,8.893951774E-2,6.707831472E-2,-2.199602686E-2
1.759981667E0,8.467845619E-2,6.920884550E-2,-1.560444664E-2
1.761986146E0,9.000477940E-2,7.240463793E-2,-1.240865607E-2
1.763990625E0,9.107004106E-2,7.773095369E-2,-4.951810464E-3
1.765995104E0,9.320056438E-2,7.879621536E-2,3.570297500E-3
1.767999584E0,9.746162593E-2,8.305726945E-2,1.209240500E-2
1.770004063E0,9.852688760E-2,8.625306189E-2,2.487556823E-2
1.772008542E0,9.746162593E-2,8.838358521E-2,3.339767829E-2
1.774013021E0,1.038532034E-1,9.477517009E-2,4.618084058E-2
1.776017500E0,1.070489958E-1,1.011667475E-1,6.002926081E-2
1.778021979E0,1.091795191E-1,1.032972783E-1,7.281242311E-2
1.780026459E0,1.123753116E-1,1.064930707E-1,9.198717028E-2
1.782030938E0,1.145058423E-1,1.096888632E-1,1.015745401E-1
1.784035417E0,1.187668890E-1,1.182109639E-1,1.164882332E-1
1.786039896E0,1.240932047E-1,1.150151715E-1,1.303366572E-1
1.788044375E0,1.230279505E-1,1.203414872E-1,1.484461427E-1
1.790048854E0,1.262237430E-1,1.203414872E-1,1.590987742E-1
1.792053334E0,1.315500587E-1,1.267330647E-1,1.686861366E-1
1.794057813E0,1.294195354E-1,1.203414872E-1,1.899914145E-1
1.796062292E0,1.294195354E-1,1.288635880E-1,1.921219379E-1
1.798066771E0,1.283542663E-1,1.246025339E-1,2.006440461E-1
1.800071250E0,1.326153129E-1,1.299288571E-1,2.144924700E-1
1.802075729E0,1.315500587E-1,1.267330647E-1,2.198187858E-1
1.804080209E0,1.358111054E-1,1.299288571E-1,2.272756398E-1
1.806084688E0,1.390068978E-1,1.299288571E-1,2.272756398E-1
1.808089167E0,1.336805820E-1,1.341899037E-1,2.326019555E-1
1.810093646E0,1.379416287E-1,1.331246346E-1,2.357977480E-1
1.812098125E0,1.411374211E-1,1.331246346E-1,2.347324789E-1
1.814102604E0,1.358111054E-1,1.320593804E-1,2.347324789E-1
1.816107084E0,1.368763745E-1,1.363204271E-1,2.336672246E-1
1.818111563E0,1.336805820E-1,1.405814886E-1,2.315366864E-1
1.820116042E0,1.315500587E-1,1.373856962E-1,2.294061631E-1
1.822120521E0,1.304847896E-1,1.395162195E-1,2.240798473E-1
1.824125000E0,1.262237430E-1,1.437772810E-1,2.219493240E-1
1.826129479E0,1.240932047E-1,1.437772810E-1,2.155577391E-1
1.828133959E0,1.230279505E-1,1.469730735E-1,2.102314234E-1
1.830138438E0,1.198321581E-1,1.416467428E-1,2.070356309E-1
1.832142917E0,1.134405732E-1,1.469730735E-1,2.081008852E-1
1.834147396E0,1.091795191E-1,1.437772810E-1,2.017093152E-1
1.836151875E0,1.070489958E-1,1.437772810E-1,2.006440461E-1
1.838156354E0,1.059837341E-1,1.395162195E-1,1.921219379E-1
1.840160834E0,1.027879417E-1,1.352551728E-1,1.921219379E-1
1.842165313E0,1.006574109E-1,1.320593804E-1,1.899914145E-1
1.844169792E0,9.746162593E-2,1.309941113E-1,1.867956221E-1
1.846174271E0,9.107004106E-2,1.299288571E-1,1.846650988E-1
1.848178750E0,8.787424862E-2,1.192762181E-1,1.804040372E-1
1.850183229E0,8.893951774E-2,1.182109639E-1,1.772082448E-1
1.852187709E0,8.254793286E-2,1.096888632E-1,1.761429906E-1
1.854192188E0,8.041740954E-2,9.903622419E-2,1.761429906E-1
1.856196667E0,7.935214043E-2,9.584043175E-2,1.740124524E-1
1.858201146E0,7.828687876E-2,8.731832355E-2,1.750777215E-1
1.860205625E0,7.615634799E-2,7.453516126E-2,1.729471982E-1
1.862210104E0,7.083003223E-2,6.814357638E-2,1.697514057E-1
1.864214584E0,6.976477057E-2,5.642568320E-2,1.686861366E-1
1.866219063E0,6.656897813E-2,4.470778257E-2,1.697514057E-1
1.868223542E0,6.550371647E-2,2.766356617E-2,1.708166748E-1
1.870228021E0,5.591634661E-2,2.233725041E-2,1.676208824E-1
1.872232500E0,5.804686993E-2,1.168461051E-2,1.676208824E-1
1.874236979E0,5.165529251E-2,2.097238787E-3,1.676208824E-1
1.876241459E0,5.591634661E-2,-8.555396460E-3,1.654903591E-1
1.878245938E0,4.419844598E-2,-1.707750559E-2,1.665556133E-1
1.880250417E0,4.526370764E-2,-2.986066788E-2,1.654903591E-1
1.882254896E0,3.780686855E-2,-3.731751069E-2,1.708166748E-1
1.884259375E0,3.674159944E-2,-4.903540760E-2,1.686861366E-1
1.886263854E0,3.141528368E-2,-5.436172336E-2,1.708166748E-1
1.888268334E0,3.248054534E-2,-5.755751580E-2,1.676208824E-1
1.890272813E0,2.821949683E-2,-6.927541643E-2,1.708166748E-1
1.892277292E0,2.289317921E-2,-7.460173219E-2,1.686861366E-1
1.894281771E0,1.863212511E-2,-7.992804796E-2,1.697514057E-1
1.896286250E0,1.650159806E-2,-8.525437117E-2,1.654903591E-1
1.898290729E0,1.224054396E-2,-8.525437117E-2,1.686861366E-1
1.900295209E0,7.979489863E-3,-9.484174103E-2,1.676208824E-1
1.902299688E0,1.011001691E-2,-9.164594859E-2,1.612292975E-1
1.904304167E0,2.653172240E-3,-1.001680568E-1,1.622945666E-1
1.906308646E0,5.226451904E-4,-9.910279512E-2,1.612292975E-1
1.908313125E0,-3.738408908E-3,-1.054943725E-1,1.654903591E-1
1.910317604E0,-2.673145384E-3,-1.097554266E-1,1.569682360E-1
1.912322084E0,-6.934199482E-3,-1.108206958E-1,1.548377126E-1
1.914326563E0,-9.064726532E-3,-1.097554266E-1,1.601640284E-1
1.916331042E0,-1.012999006E-2,-1.140164807E-1,1.548377126E-1
1.918335521E0,-1.652157120E-2,-1.140164807E-1,1.516419202E-1
1.920340000E0,-1.545630768E-2,-1.129512191E-1,1.473808736E-1
1.922344479E0,-1.652157120E-2,-1.161470115E-1,1.473808736E-1
1.924348959E0,-1.865209825E-2,-1.108206958E-1,1.484461427E-1
1.926353438E0,-2.078262530E-2,-1.108206958E-1,1.463156044E-1
1.928357917E0,-2.184788883E-2,-1.129512191E-1,1.431198120E-1
1.930362396E0,-2.184788883E-2,-1.129512191E-1,1.431198120E-1
1.932366875E0,-2.397841588E-2,-1.108206958E-1,1.409892887E-1
1.934371354E0,-1.865209825E-2,-1.086901650E-1,1.431198120E-1
1.936375834E0,-2.397841588E-2,-1.086901650E-1,1.356629729E-1
1.938380313E0,-2.291315235E-2,-1.065596342E-1,1.367282420E-1
1.940384792E0,-2.504367940E-2,-1.065596342E-1,1.324671805E-1
1.942389271E0,-2.823946998E-2,-1.022985876E-1,1.260755956E-1
1.944393750E0,-2.184788883E-2,-1.012333184E-1,1.239450797E-1
1.946398229E0,-2.610894293E-2,-1.054943725E-1,1.207492799E-1
1.948402709E0,-2.717420645E-2,-1.001680568E-1,1.186187565E-1
1.950407188E0,-2.291315235E-2,-1.001680568E-1,1.154229641E-1
1.952411667E0,-2.078262530E-2,-9.803752601E-2,1.090313867E-1
1.954416146E0,-2.291315235E-2,-9.058068693E-2,1.111619100E-1
1.956420625E0,-2.504367940E-2,-8.951541781E-2,1.090313867E-1
1.958425156E0,-2.291315235E-2,-8.738489449E-2,1.058355942E-1
1.960429688E0,-2.184788883E-2,-8.631963283E-2,1.047703326E-1
1.962434219E0,-1.758683473E-2,-8.312384039E-2,1.058355942E-1
1.964438750E0,-2.184788883E-2,-8.205857873E-2,1.047703326E-1
1.966443281E0,-2.078262530E-2,-7.886278629E-2,1.026398018E-1
1.968447813E0,-2.078262530E-2,-7.673226297E-2,1.005092785E-1
1.970452344E0,-1.971736178E-2,-7.353647053E-2,9.624822438E-2
1.972456875E0,-1.971736178E-2,-7.566699386E-2,9.944401681E-2
1.974461406E0,-2.078262530E-2,-7.140593976E-2,9.518295527E-2
1.976465938E0,-2.397841588E-2,-6.821015477E-2,9.624822438E-2
1.978470469E0,-2.291315235E-2,-6.181856990E-2,9.518295527E-2
1.980475000E0,-2.504367940E-2,-5.968804657E-2,9.624822438E-2
1.982479531E0,-2.397841588E-2,-5.649225414E-2,9.624822438E-2
1.984484063E0,-2.610894293E-2,-5.649225414E-2,9.731348604E-2
1.986488594E0,-2.823946998E-2,-5.329646170E-2,9.518295527E-2
1.988493125E0,-2.930473350E-2,-4.903540760E-2,9.518295527E-2
1.990497656E0,-2.930473350E-2,-4.583961889E-2,9.518295527E-2
1.992502188E0,-3.463105112E-2,-4.370909184E-2,9.198717028E-2
1.994506719E0,-3.676158190E-2,-3.625224903E-2,9.518295527E-2
1.996511250E0,-3.995737433E-2,-3.625224903E-2,9.305243194E-2
1.998515781E0,-4.102263600E-2,-3.199119493E-2,9.624822438E-2
2.000520313E0,-3.995737433E-2,-2.986066788E-2,9.518295527E-2
2.002524844E0,-4.208789766E-2,-2.879540250E-2,1.015745401E-1
2.004529375E0,-4.315315932E-2,-2.879540250E-2,9.624822438E-2
2.006533906E0,-4.847948253E-2,-2.346908674E-2,1.015745401E-1
2.008538438E0,-4.847948253E-2,-2.346908674E-2,9.944401681E-2
2.010542969E0,-4.954474419E-2,-2.453434840E-2,1.037050635E-1
2.012547500E0,-4.847948253E-2,-2.133855969E-2,1.026398018E-1
2.014552031E0,-4.954474419E-2,-2.027329430E-2,1.026398018E-1
2.016556563E0,-5.380579829E-2,-2.133855969E-2,1.090313867E-1
2.018561094E0,-5.274053663E-2,-2.133855969E-2,1.100966483E-1
2.020565573E0,-5.593632162E-2,-1.707750559E-2,1.111619100E-1
2.022570052E0,-6.019737571E-2,-1.601224020E-2,1.143577024E-1
2.024574531E0,-5.806685239E-2,-1.494697761E-2,1.164882332E-1
2.026579011E0,-5.806685239E-2,-1.281645056E-2,1.164882332E-1
2.028583490E0,-5.700159073E-2,-1.068592351E-2,1.271408647E-1
2.030587969E0,-5.913211405E-2,-6.424869411E-3,1.292713881E-1
2.032592448E0,-6.126264483E-2,-3.229078837E-3,1.324671805E-1
2.034596927E0,-5.593632162E-2,1.031975262E-3,1.356629729E-1
2.036601406E0,-6.019737571E-2,4.227765836E-3,1.420545578E-1
2.038605886E0,-6.126264483E-2,1.168461051E-2,1.495113969E-1
2.040610365E0,-6.126264483E-2,1.381513942E-2,1.505766660E-1
2.042614844E0,-6.019737571E-2,1.807619259E-2,1.548377126E-1
2.044619323E0,-6.126264483E-2,2.446777374E-2,1.622945666E-1
2.046623802E0,-6.552369893E-2,2.340251207E-2,1.665556133E-1
2.048628281E0,-6.658896059E-2,2.979408950E-2,1.729471982E-1
2.050632761E0,-6.871949136E-2,4.044672847E-2,1.782735139E-1
2.052637240E0,-6.658896059E-2,4.577304423E-2,1.814693063E-1
2.054641719E0,-6.871949136E-2,4.683831334E-2,1.899914145E-1
2.056646198E0,-6.552369893E-2,6.068673730E-2,1.910566688E-1
2.058650677E0,-6.232790649E-2,6.388252974E-2,1.974482536E-1
2.060655156E0,-6.658896059E-2,7.346989959E-2,2.038398385E-1
2.062659636E0,-6.339316815E-2,7.773095369E-2,2.059703618E-1
2.064664115E0,-6.019737571E-2,8.305726945E-2,2.081008852E-1
2.066668594E0,-5.913211405E-2,8.838358521E-2,2.123619467E-1
2.068673073E0,-5.700159073E-2,9.264463931E-2,2.166230083E-1
2.070677552E0,-6.019737571E-2,1.001014858E-1,2.230145782E-1
2.072682031E0,-6.019737571E-2,1.075583249E-1,2.262103707E-1
2.074686511E0,-5.806685239E-2,1.128846556E-1,2.283408940E-1
2.076690990E0,-5.487105995E-2,1.171456948E-1,2.368630022E-1
2.078695469E0,-5.274053663E-2,1.256677955E-1,2.347324789E-1
2.080699948E0,-4.847948253E-2,1.299288571E-1,2.379282713E-1
2.082704427E0,-4.741421342E-2,1.363204271E-1,2.421893179E-1
2.084708906E0,-4.102263600E-2,1.405814886E-1,2.400587946E-1
2.086713386E0,-3.889210522E-2,1.427120119E-1,2.411240637E-1
2.088717865E0,-3.995737433E-2,1.501688510E-1,2.443198562E-1
2.090722344E0,-3.356578946E-2,1.554951668E-1,2.443198562E-1
2.092726823E0,-3.463105112E-2,1.640172899E-1,2.432545871E-1
2.094731302E0,-3.250052407E-2,1.672130674E-1,2.432545871E-1
2.096735781E0,-3.036999702E-2,1.757351756E-1,2.464503795E-1
2.098740261E0,-2.717420645E-2,1.853225529E-1,2.432545871E-1
2.100744740E0,-2.717420645E-2,1.895835996E-1,2.443198562E-1
2.102749219E0,-2.610894293E-2,2.002362460E-1,2.411240637E-1
2.104753698E0,-2.610894293E-2,2.055625618E-1,2.443198562E-1
2.106758177E0,-2.397841588E-2,2.130194008E-1,2.379282713E-1
2.108762656E0,-2.184788883E-2,2.130194008E-1,2.411240637E-1
2.110767136E0,-2.184788883E-2,2.226067781E-1,2.411240637E-1
2.112771615E0,-1.865209825E-2,2.268678248E-1,2.421893179E-1
2.114776094E0,-2.078262530E-2,2.289983630E-1,2.389935404E-1
2.116780573E0,-1.971736178E-2,2.396510094E-1,2.421893179E-1
2.118785052E0,-1.971736178E-2,2.396510094E-1,2.443198562E-1
2.120789531E0,-2.184788883E-2,2.417815477E-1,2.432545871E-1
2.122794011E0,-1.758683473E-2,2.492383868E-1,2.421893179E-1
2.124798490E0,-1.545630768E-2,2.481731027E-1,2.432545871E-1
2.126802969E0,-1.652157120E-2,2.471078485E-1,2.453851104E-1
2.128807448E0,-1.545630768E-2,2.492383868E-1,2.507114410E-1
2.130811927E0,-1.865209825E-2,2.492383868E-1,2.507114410E-1
2.132816406E0,-1.758683473E-2,2.513689101E-1,2.528419495E-1
2.134820886E0,-2.291315235E-2,2.503036559E-1,2.571030259E-1
2.136825365E0,-2.291315235E-2,2.503036559E-1,2.613640726E-1
2.138829844E0,-2.291315235E-2,2.439120561E-1,2.656251192E-1
2.140834323E0,-2.184788883E-2,2.428468019E-1,2.709514499E-1
2.142838802E0,-2.184788883E-2,2.396510094E-1,2.720167041E-1
2.144843281E0,-2.291315235E-2,2.396510094E-1,2.794735432E-1
2.146847761E0,-2.504367940E-2,2.364552021E-1,2.826693356E-1
2.148852240E0,-2.504367940E-2,2.321941555E-1,2.890609205E-1
2.150856719E0,-2.504367940E-2,2.343246639E-1,2.933219671E-1
2.152861198E0,-3.143525869E-2,2.268678248E-1,3.061051369E-1
2.154865677E0,-3.250052407E-2,2.258025706E-1,3.082356751E-1
2.156870156E0,-2.930473350E-2,2.258025706E-1,3.156925142E-1
2.158874636E0,-3.356578946E-2,2.183457166E-1,3.252798915E-1
2.160879115E0,-3.356578946E-2,2.194109857E-1,3.316714764E-1
2.162883594E0,-3.036999702E-2,2.130194008E-1,3.380630314E-1
2.164888073E0,-3.569631651E-2,2.098236084E-1,3.455199003E-1
2.166892552E0,-3.782684356E-2,2.119541466E-1,3.529767394E-1
2.168897031E0,-4.208789766E-2,2.055625618E-1,3.657599092E-1
2.170901511E0,-4.421842843E-2,2.055625618E-1,3.742820024E-1
2.172905990E0,-4.528369009E-2,2.023667693E-1,3.859998882E-1
2.174910469E0,-4.847948253E-2,2.034320384E-1,3.923914731E-1
2.176914948E0,-5.380579829E-2,2.023667693E-1,4.062398970E-1
2.178919427E0,-5.380579829E-2,2.013015002E-1,4.105009735E-1
2.180923906E0,-5.700159073E-2,2.034320384E-1,4.211536050E-1
2.182928386E0,-6.339316815E-2,2.044972926E-1,4.360672832E-1
2.184932865E0,-6.552369893E-2,2.013015002E-1,4.467199147E-1
2.186937344E0,-6.871949136E-2,2.044972926E-1,4.552420378E-1
2.188941823E0,-6.765422225E-2,2.108888775E-1,4.605683386E-1
2.190946302E0,-7.298053801E-2,2.023667693E-1,4.712209702E-1
2.192950781E0,-7.830686122E-2,2.108888775E-1,4.818736315E-1
2.194955261E0,-8.469843864E-2,2.098236084E-1,4.903957248E-1
2.196959740E0,-8.150264621E-2,2.172804624E-1,4.999831021E-1
2.198964219E0,-8.895949274E-2,2.162151933E-1,5.095704794E-1
2.200968698E0,-9.109002352E-2,2.247373015E-1,5.170273185E-1
2.202973177E0,-9.535107762E-2,2.300636172E-1,5.266146660E-1
2.204977656E0,-9.322054684E-2,2.385857403E-1,5.276799798E-1
2.206982136E0,-1.028079242E-1,2.439120561E-1,5.340715051E-1
2.208986615E0,-1.049384475E-1,2.513689101E-1,5.393978357E-1
2.210991094E0,-1.091995016E-1,2.641520798E-1,5.457894206E-1
2.212995573E0,-1.145258173E-1,2.716089189E-1,5.564420819E-1
2.215000052E0,-1.209174022E-1,2.865226269E-1,5.564420819E-1
2.217004531E0,-1.219826639E-1,2.993057668E-1,5.607030988E-1
2.219009011E0,-1.251784563E-1,3.099584281E-1,5.660294294E-1
2.221013490E0,-1.326352954E-1,3.291331530E-1,5.724210143E-1
2.223017969E0,-1.347658336E-1,3.504384160E-1,5.724210143E-1
2.225022448E0,-1.411574036E-1,3.642868400E-1,5.798778534E-1
2.227026927E0,-1.443531960E-1,3.845268488E-1,5.862694383E-1
2.229031406E0,-1.496795118E-1,4.058321416E-1,5.873346925E-1
2.231035886E0,-1.539405733E-1,4.282026589E-1,5.937262774E-1
2.233040365E0,-1.571363658E-1,4.441816211E-1,6.022483706E-1
2.235044844E0,-1.624626815E-1,4.697479308E-1,6.065094471E-1
2.237049323E0,-1.656584740E-1,4.867921472E-1,6.129010320E-1
2.239053802E0,-1.635279357E-1,5.102279186E-1,6.182273626E-1
2.241058281E0,-1.709847897E-1,5.357941985E-1,6.192926168E-1
2.243062761E0,-1.731153131E-1,5.581647754E-1,6.320757866E-1
2.245067240E0,-1.720500439E-1,5.794700384E-1,6.395326257E-1
2.247071719E0,-1.720500439E-1,6.061016321E-1,6.469894648E-1
2.249076198E0,-1.741805822E-1,6.263416409E-1,6.544463038E-1
2.251080677E0,-1.784416288E-1,6.444510818E-1,6.619031429E-1
2.253085156E0,-1.741805822E-1,6.614953279E-1,6.682947278E-1
2.255089636E0,-1.720500439E-1,6.838658452E-1,6.757515669E-1
2.257094167E0,-1.741805822E-1,6.987795234E-1,6.864042282E-1
2.259098698E0,-1.709847897E-1,7.190195322E-1,6.938610673E-1
2.261103229E0,-1.709847897E-1,7.328679562E-1,7.045136690E-1
2.263107761E0,-1.656584740E-1,7.499122024E-1,7.077094913E-1
2.265112292E0,-1.645932049E-1,7.616301179E-1,7.162315845E-1
2.267116823E0,-1.635279357E-1,7.765437961E-1,7.258189917E-1
2.269121354E0,-1.613974124E-1,7.903922200E-1,7.300800085E-1
2.271125886E0,-1.592668891E-1,8.042406440E-1,7.407326698E-1
2.273130417E0,-1.550058275E-1,8.095669746E-1,7.471242547E-1
2.275134948E0,-1.539405733E-1,8.244806528E-1,7.567116022E-1
2.277139479E0,-1.528753042E-1,8.383290768E-1,7.652336955E-1
2.279144011E0,-1.475489885E-1,8.468511701E-1,7.705600262E-1
2.281148542E0,-1.486142576E-1,8.638954163E-1,7.769516110E-1
2.283153073E0,-1.432879269E-1,8.734827638E-1,7.865389585E-1
2.285157604E0,-1.443531960E-1,8.894616961E-1,7.918652892E-1
2.287162136E0,-1.422226727E-1,9.011796117E-1,8.003874421E-1
2.289166667E0,-1.432879269E-1,9.160932899E-1,8.067789674E-1
2.291171198E0,-1.443531960E-1,9.278112054E-1,8.110400438E-1
2.293175729E0,-1.422226727E-1,9.427248836E-1,8.110400438E-1
2.295180261E0,-1.443531960E-1,9.565733075E-1,8.184968829E-1
2.297184792E0,-1.443531960E-1,9.746828079E-1,8.121052980E-1
2.299189323E0,-1.464837193E-1,9.874659777E-1,8.206273913E-1
2.301193854E0,-1.496795118E-1,1.004510283E0,8.110400438E-1
2.303198386E0,-1.496795118E-1,1.025815606E0,8.099747896E-1
2.305202917E0,-1.592668891E-1,1.042859793E0,8.067789674E-1
2.307207448E0,-1.582016200E-1,1.065230370E0,7.971916199E-1
2.309211979E0,-1.635279357E-1,1.085470319E0,7.929305434E-1
2.311216511E0,-1.709847897E-1,1.112101912E0,7.865389585E-1
2.313221042E0,-1.741805822E-1,1.139798760E0,7.748211026E-1
2.315225573E0,-1.837679446E-1,1.164299846E0,7.716252804E-1
2.317230104E0,-1.869637370E-1,1.190931439E0,7.567116022E-1
2.319234584E0,-1.912247986E-1,1.223954558E0,7.513852715E-1
2.321239063E0,-1.954858452E-1,1.252716660E0,7.407326698E-1
2.323243542E0,-1.997469068E-1,1.287870407E0,7.247536778E-1
2.325248021E0,-2.040079534E-1,1.316632509E0,7.172968388E-1
2.327252500E0,-2.061384767E-1,1.351786256E0,7.066442370E-1
2.329256979E0,-2.125300616E-1,1.386939883E0,6.981220841E-1
2.331261459E0,-2.093342692E-1,1.423158884E0,6.864042282E-1
2.333265938E0,-2.114647925E-1,1.456182003E0,6.746863127E-1
2.335270417E0,-2.135953307E-1,1.500923038E0,6.619031429E-1
2.337274896E0,-2.135953307E-1,1.546729445E0,6.533810496E-1
2.339279375E0,-2.146605849E-1,1.581883073E0,6.427283883E-1
2.341283854E0,-2.125300616E-1,1.621297836E0,6.331410408E-1
2.343288334E0,-2.135953307E-1,1.663908362E0,6.235536933E-1
2.345292813E0,-2.093342692E-1,1.710780025E0,6.160967946E-1
2.347297292E0,-2.082690150E-1,1.751260042E0,6.139662862E-1
2.349301771E0,-2.050732225E-1,1.793870568E0,6.086399555E-1
2.351306250E0,-2.018774301E-1,1.832220078E0,6.001178622E-1
2.353310729E0,-1.997469068E-1,1.872700095E0,6.001178622E-1
2.355315209E0,-1.954858452E-1,1.911049604E0,5.990526080E-1
2.357319688E0,-1.944205761E-1,1.950464249E0,5.969220996E-1
2.359324167E0,-1.858984828E-1,1.983487368E0,5.969220996E-1
2.361328646E0,-1.848332137E-1,2.023967505E0,6.001178622E-1
2.363333125E0,-1.795068979E-1,2.056990623E0,6.022483706E-1
2.365337604E0,-1.763111055E-1,2.093209505E0,6.033136845E-1
2.367342084E0,-1.773763597E-1,2.120906353E0,6.075747013E-1
2.369346563E0,-1.731153131E-1,2.159255981E0,6.182273626E-1
2.371351042E0,-1.688542664E-1,2.188018084E0,6.203578711E-1
2.373355521E0,-1.635279357E-1,2.215714931E0,6.246189475E-1
2.375360000E0,-1.613974124E-1,2.240216017E0,6.310105324E-1
2.377364479E0,-1.592668891E-1,2.261521339E0,6.427283883E-1
2.379368959E0,-1.571363658E-1,2.284956932E0,6.512505412E-1
2.381373438E0,-1.560710967E-1,2.303066492E0,6.619031429E-1
2.383377917E0,-1.528753042E-1,2.321176052E0,6.682947278E-1
2.385382396E0,-1.528753042E-1,2.332893848E0,6.810778975E-1
2.387386875E0,-1.507447809E-1,2.348872900E0,6.864042282E-1
2.389391354E0,-1.507447809E-1,2.353133917E0,6.991873980E-1
2.391395834E0,-1.475489885E-1,2.363786459E0,7.098399997E-1
2.393400313E0,-1.507447809E-1,2.371243477E0,7.194274068E-1
2.395404792E0,-1.496795118E-1,2.372308731E0,7.290147543E-1
2.397409271E0,-1.496795118E-1,2.376569748E0,7.439284325E-1
2.399413750E0,-1.496795118E-1,2.375504494E0,7.471242547E-1
2.401418229E0,-1.518100500E-1,2.371243477E0,7.609726787E-1
2.403422709E0,-1.486142576E-1,2.358460188E0,7.726905346E-1
2.405427188E0,-1.528753042E-1,2.356329679E0,7.822779417E-1
2.407431667E0,-1.528753042E-1,2.348872900E0,7.908000350E-1
2.409436146E0,-1.528753042E-1,2.335024357E0,8.014526963E-1
2.411440625E0,-1.539405733E-1,2.321176052E0,8.121052980E-1
2.413445104E0,-1.571363658E-1,2.308392763E0,8.227579594E-1
2.415449584E0,-1.592668891E-1,2.290283442E0,8.312800527E-1
2.417454063E0,-1.613974124E-1,2.278565407E0,8.451284766E-1
2.419458542E0,-1.645932049E-1,2.254064322E0,8.483242989E-1
2.421463021E0,-1.699195206E-1,2.228497982E0,8.653684855E-1
2.423467500E0,-1.731153131E-1,2.211453915E0,8.728253245E-1
2.425471979E0,-1.795068979E-1,2.186952829E0,8.792169094E-1
2.427476459E0,-1.837679446E-1,2.160321236E0,8.930653334E-1
2.429480938E0,-1.922900528E-1,2.135820150E0,8.930653334E-1
2.431485417E0,-1.976163685E-1,2.107058048E0,9.026526809E-1
2.433489896E0,-2.029426992E-1,2.080426455E0,9.079790115E-1
2.435494375E0,-2.135953307E-1,2.052729607E0,9.133053422E-1
2.437498854E0,-2.199869156E-1,2.019706488E0,9.196969271E-1
2.439503334E0,-2.242479622E-1,1.987748623E0,9.218274355E-1
2.441507813E0,-2.327700704E-1,1.956855893E0,9.239580035E-1
2.443512292E0,-2.434227020E-1,1.918506384E0,9.282190204E-1
2.445516771E0,-2.466184944E-1,1.881222129E0,9.303495884E-1
2.447521250E0,-2.604669034E-1,1.839676857E0,9.324800968E-1
2.449525729E0,-2.689889967E-1,1.803457975E0,9.324800968E-1
2.451530209E0,-2.721847892E-1,1.762977958E0,9.356758595E-1
2.453534688E0,-2.860332131E-1,1.724628448E0,9.420674443E-1
2.455539167E0,-2.966858447E-1,1.684148431E0,9.420674443E-1
2.457543646E0,-3.020121753E-1,1.646864176E0,9.356758595E-1
2.459548125E0,-3.115995526E-1,1.608514667E0,9.410021901E-1
2.461552604E0,-3.222521842E-1,1.570165277E0,9.420674443E-1
2.463557084E0,-3.297090232E-1,1.523293614E0,9.420674443E-1
2.465561563E0,-3.392964005E-1,1.483878851E0,9.441980124E-1
2.467566042E0,-3.510142863E-1,1.444464087E0,9.431326985E-1
2.469570521E0,-3.563406169E-1,1.401853561E0,9.431326985E-1
2.471575000E0,-3.669932485E-1,1.361373544E0,9.473937750E-1
2.473579479E0,-3.755153418E-1,1.318763018E0,9.431326985E-1
2.475583959E0,-3.829722106E-1,1.278283000E0,9.452632666E-1
2.477588438E0,-3.914943039E-1,1.230346203E0,9.484590292E-1
2.479592917E0,-4.010816813E-1,1.191996694E0,9.463285208E-1
2.481597396E0,-4.127995670E-1,1.150451422E0,9.516548514E-1
2.483601875E0,-4.159953594E-1,1.106775641E0,9.452632666E-1
2.485606354E0,-4.287785292E-1,1.065230370E0,9.505895972E-1
2.487610834E0,-4.362353683E-1,1.020489216E0,9.527201056E-1
2.489615313E0,-4.447574914E-1,9.800091386E-1,9.548506141E-1
2.491619792E0,-4.511490762E-1,9.373985529E-1,9.548506141E-1
2.493624271E0,-4.575406313E-1,8.937227726E-1,9.633727074E-1
2.495628750E0,-4.692585468E-1,8.500469923E-1,9.655032754E-1
2.497633229E0,-4.724543393E-1,8.138279915E-1,9.644380212E-1
2.499637709E0,-4.745848477E-1,7.626953721E-1,9.718948603E-1
2.501642188E0,-4.820417166E-1,7.243458629E-1,9.750906229E-1
2.503646667E0,-4.873680174E-1,6.785395145E-1,9.772211313E-1
2.505651146E0,-4.894985557E-1,6.380594969E-1,9.772211313E-1
2.507655625E0,-4.894985557E-1,5.933184624E-1,9.782864451E-1
2.509660104E0,-4.894985557E-1,5.507079363E-1,9.814822078E-1
2.511664584E0,-4.937596023E-1,5.112931728E-1,9.814822078E-1
2.513669063E0,-4.916290641E-1,4.718784690E-1,9.846780300E-1
2.515673542E0,-4.905638099E-1,4.313984513E-1,9.857432842E-1
2.517678021E0,-4.905638099E-1,3.930489719E-1,9.921348691E-1
2.519682500E0,-4.873680174E-1,3.578952849E-1,9.878737926E-1
2.521686979E0,-4.863027632E-1,3.206110597E-1,9.857432842E-1
2.523691459E0,-4.852375090E-1,2.929142118E-1,9.900043011E-1
2.525695938E0,-4.831069708E-1,2.534994483E-1,9.868085384E-1
2.527700417E0,-4.788459241E-1,2.204762548E-1,9.878737926E-1
2.529704896E0,-4.809764326E-1,1.874530762E-1,9.889390469E-1
2.531709375E0,-4.756501317E-1,1.629520208E-1,9.878737926E-1
2.533713854E0,-4.724543393E-1,1.363204271E-1,9.836127162E-1
2.535718334E0,-4.735195935E-1,1.064930707E-1,9.772211313E-1
2.537722813E0,-4.681932926E-1,8.518779278E-2,9.740253687E-1
2.539727292E0,-4.639322162E-1,6.175199896E-2,9.686990380E-1
2.541731771E0,-4.649975002E-1,4.577304423E-2,9.655032754E-1
2.543736250E0,-4.618017077E-1,2.659830451E-2,9.548506141E-1
2.545740729E0,-4.596711695E-1,7.423556410E-3,9.505895972E-1
2.547745209E0,-4.532795846E-1,-6.424869411E-3,9.431326985E-1
2.549749688E0,-4.564753771E-1,-2.240382135E-2,9.356758595E-1
2.551754167E0,-4.479532838E-1,-3.625224903E-2,9.186316729E-1
2.553758698E0,-4.490185380E-1,-4.903540760E-2,9.101095796E-1
2.555763229E0,-4.415616989E-1,-5.862277746E-2,8.973264098E-1
2.557767761E0,-4.404964149E-1,-7.247120887E-2,8.866737485E-1
2.559772292E0,-4.351701140E-1,-7.779752463E-2,8.728253245E-1
2.561776823E0,-4.330395758E-1,-8.845015615E-2,8.589769006E-1
2.563781354E0,-4.266479909E-1,-9.164594859E-2,8.344758153E-1
2.565785886E0,-4.266479909E-1,-9.803752601E-2,8.206273913E-1
2.567790417E0,-4.245174825E-1,-1.076249033E-1,8.078442812E-1
2.569794948E0,-4.181258976E-1,-1.076249033E-1,7.854737043E-1
2.571799479E0,-4.213216901E-1,-1.118859574E-1,7.662989497E-1
2.573804011E0,-4.170606434E-1,-1.161470115E-1,7.481895089E-1
2.575808542E0,-4.170606434E-1,-1.172122732E-1,7.343410850E-1
2.577813073E0,-4.159953594E-1,-1.193428040E-1,7.151663303E-1
2.579817604E0,-4.127995670E-1,-1.172122732E-1,6.906652451E-1
2.581822136E0,-4.117343128E-1,-1.129512191E-1,6.746863127E-1
2.583826667E0,-4.149301052E-1,-1.172122732E-1,6.619031429E-1
2.585831198E0,-4.127995670E-1,-1.204080656E-1,6.405978799E-1
2.587835729E0,-4.106690586E-1,-1.150817424E-1,6.235536933E-1
2.589840261E0,-4.085385203E-1,-1.172122732E-1,6.043789387E-1
2.591844792E0,-4.106690586E-1,-1.108206958E-1,5.862694383E-1
2.593849323E0,-4.127995670E-1,-1.086901650E-1,5.638989210E-1
2.595853854E0,-4.085385203E-1,-1.022985876E-1,5.447241664E-1
2.597858386E0,-4.064079821E-1,-1.001680568E-1,5.298104882E-1
2.599862917E0,-4.042774737E-1,-9.484174103E-2,5.053094029E-1
2.601867448E0,-4.032122195E-1,-9.058068693E-2,4.893304706E-1
2.603871979E0,-4.000164270E-1,-8.099331707E-2,4.658946693E-1
2.605876511E0,-3.925595582E-1,-7.034067810E-2,4.445894063E-1
2.607881042E0,-3.925595582E-1,-6.821015477E-2,4.275451899E-1
2.609885573E0,-3.851027191E-1,-5.542699248E-2,4.030441046E-1
2.611890104E0,-3.787111342E-1,-4.583961889E-2,3.817388415E-1
2.613894636E0,-3.765806258E-1,-3.625224903E-2,3.625641167E-1
2.615899115E0,-3.701890409E-1,-2.879540250E-2,3.380630314E-1
2.617903594E0,-3.648627102E-1,-2.133855969E-2,3.210188150E-1
2.619908073E0,-3.606016636E-1,-2.027329430E-2,2.943872511E-1
2.621912552E0,-3.531448245E-1,-5.359605886E-3,2.720167041E-1
2.623917031E0,-3.456879854E-1,9.554083459E-3,2.496461421E-1
2.625921511E0,-3.361006081E-1,2.127198130E-2,2.283408940E-1
2.627925990E0,-3.318395615E-1,2.872882783E-2,2.027745694E-1
2.629930469E0,-3.201216459E-1,5.109935999E-2,1.782735139E-1
2.631934948E0,-3.094690144E-1,6.281726062E-2,1.590987742E-1
2.633939427E0,-3.030774295E-1,7.773095369E-2,1.367282420E-1
2.635943906E0,-2.924247980E-1,9.477517009E-2,1.154229641E-1
2.637948386E0,-2.796416283E-1,1.107541174E-1,8.879137784E-2
2.639952865E0,-2.721847892E-1,1.224720106E-1,6.961663067E-2
2.641957344E0,-2.594016194E-1,1.405814886E-1,4.937663302E-2
2.643961823E0,-2.530100644E-1,1.618867517E-1,2.594083175E-2
2.645966302E0,-2.423574477E-1,1.778657138E-1,6.766087376E-3
2.647970781E0,-2.242479622E-1,1.938446611E-1,-1.240865607E-2
2.649975261E0,-2.114647925E-1,2.162151933E-1,-3.264866397E-2
2.651979740E0,-1.976163685E-1,2.353899479E-1,-5.395393074E-2
2.653984219E0,-1.848332137E-1,2.513689101E-1,-7.525920868E-2
2.655988698E0,-1.709847897E-1,2.641520798E-1,-8.910763264E-2
2.657993177E0,-1.571363658E-1,2.843920887E-1,-1.082823724E-1
2.659997656E0,-1.443531960E-1,3.046320975E-1,-1.306529045E-1
2.662002136E0,-1.347658336E-1,3.184805214E-1,-1.370444894E-1
2.664006615E0,-1.187868714E-1,3.323289454E-1,-1.604802907E-1
2.666011094E0,-1.113300323E-1,3.504384160E-1,-1.721981913E-1
2.668015573E0,-9.961213171E-2,3.642868400E-1,-1.892424077E-1
2.670020052E0,-9.215528518E-2,3.823963404E-1,-2.062866241E-1
2.672024531E0,-7.830686122E-2,3.941142261E-1,-2.243960947E-1
2.674029011E0,-6.658896059E-2,4.047668576E-1,-2.371792644E-1
2.676033490E0,-5.167526752E-2,4.154195189E-1,-2.574192584E-1
2.678037969E0,-3.889210522E-2,4.292679429E-1,-2.808550596E-1
2.680042448E0,-2.504367940E-2,4.377900362E-1,-2.925729752E-1
2.682046927E0,-1.332578063E-2,4.495079517E-1,-3.138782382E-1
2.684051406E0,5.226451904E-4,4.633563757E-1,-3.319877088E-1
2.686055886E0,1.117528044E-2,4.750742614E-1,-3.522277176E-1
2.688060365E0,2.928475849E-2,4.804005921E-1,-3.724677265E-1
2.690064844E0,4.419844598E-2,4.910531938E-1,-3.927077353E-1
2.692069323E0,5.591634661E-2,5.017057657E-1,-4.140129983E-1
2.694073802E0,7.083003223E-2,5.112931728E-1,-4.353182912E-1
2.696078281E0,8.254793286E-2,5.240763426E-1,-4.598193467E-1
2.698082761E0,9.639635682E-2,5.347289443E-1,-4.821898639E-1
2.700087240E0,1.081142575E-1,5.475121140E-1,-5.056256652E-1
2.702091719E0,1.155711040E-1,5.624257922E-1,-5.248004198E-1
2.704096198E0,1.262237430E-1,5.730784535E-1,-5.503667593E-1
2.706100677E0,1.379416287E-1,5.858616233E-1,-5.727372766E-1
2.708105156E0,1.411374211E-1,5.975794792E-1,-5.951077938E-1
2.710109636E0,1.571163833E-1,6.082321405E-1,-6.206741333E-1
2.712114115E0,1.603121758E-1,6.188848019E-1,-6.377183199E-1
2.714118594E0,1.656384915E-1,6.295374036E-1,-6.536973119E-1
2.716123073E0,1.709648073E-1,6.423205733E-1,-6.771330833E-1
2.718127552E0,1.752258539E-1,6.455163956E-1,-6.984383464E-1
2.720132031E0,1.741605997E-1,6.561689973E-1,-7.112215161E-1
2.722136511E0,1.741605997E-1,6.625605822E-1,-7.272005081E-1
2.724140990E0,1.741605997E-1,6.657563448E-1,-7.367878556E-1
2.726145469E0,1.762911230E-1,6.721479297E-1,-7.517015338E-1
2.728149948E0,1.741605997E-1,6.785395145E-1,-7.602236271E-1
2.730154427E0,1.730953306E-1,6.785395145E-1,-7.666152120E-1
2.732158906E0,1.709648073E-1,6.838658452E-1,-7.772678733E-1
2.734163386E0,1.698995382E-1,6.923879385E-1,-7.879204750E-1
2.736167865E0,1.667037457E-1,6.913226843E-1,-7.847247124E-1
2.738172344E0,1.635079682E-1,6.913226843E-1,-7.900510430E-1
2.740176823E0,1.560511142E-1,6.966490149E-1,-7.921815515E-1
2.742181302E0,1.560511142E-1,6.934532523E-1,-7.932468057E-1
2.744185781E0,1.517900676E-1,6.902574301E-1,-7.836594582E-1
2.746190261E0,1.517900676E-1,6.891921759E-1,-7.836594582E-1
2.748194740E0,1.464637518E-1,6.796047688E-1,-7.751373649E-1
2.750199219E0,1.485942751E-1,6.796047688E-1,-7.740720510E-1
2.752203698E0,1.443332136E-1,6.732132435E-1,-7.612889409E-1
2.754208177E0,1.411374211E-1,6.625605822E-1,-7.495710254E-1
2.756212656E0,1.443332136E-1,6.572342515E-1,-7.421141863E-1
2.758217136E0,1.422026902E-1,6.508426666E-1,-7.303962708E-1
2.760221615E0,1.443332136E-1,6.508426666E-1,-7.176131010E-1
2.762226094E0,1.507247984E-1,6.455163956E-1,-7.016341686E-1
2.764230573E0,1.507247984E-1,6.465816498E-1,-6.899162531E-1
2.766235052E0,1.517900676E-1,6.444510818E-1,-6.675457358E-1
2.768239531E0,1.581816375E-1,6.433858275E-1,-6.483709812E-1
2.770244011E0,1.603121758E-1,6.444510818E-1,-6.302614808E-1
2.772248490E0,1.613774300E-1,6.423205733E-1,-6.068257093E-1
2.774252969E0,1.667037457E-1,6.444510818E-1,-5.855204463E-1
2.776257448E0,1.688342839E-1,6.455163956E-1,-5.599541068E-1
2.778261927E0,1.741605997E-1,6.476469040E-1,-5.354530215E-1
2.780266406E0,1.752258539E-1,6.476469040E-1,-5.098867416E-1
2.782270886E0,1.826827079E-1,6.455163956E-1,-4.811246097E-1
2.784275365E0,1.858785003E-1,6.508426666E-1,-4.544930160E-1
2.786279844E0,1.901395470E-1,6.540384889E-1,-4.246656299E-1
2.788284323E0,1.975964010E-1,6.519079208E-1,-3.948382735E-1
2.790288802E0,1.975964010E-1,6.487121582E-1,-3.692719340E-1
2.792293281E0,2.007921785E-1,6.444510818E-1,-3.383792937E-1
2.794297761E0,2.039879709E-1,6.444510818E-1,-3.085519075E-1
2.796302240E0,2.039879709E-1,6.401900649E-1,-2.808550596E-1
2.798306719E0,2.082490325E-1,6.348637342E-1,-2.478318959E-1
2.800311198E0,2.071837634E-1,6.274068952E-1,-2.201350480E-1
2.802315677E0,2.050532401E-1,6.210153103E-1,-1.871118695E-1
2.804320156E0,2.029227167E-1,6.103626490E-1,-1.626108140E-1
2.806324636E0,2.018574476E-1,6.007753015E-1,-1.359792203E-1
2.808329115E0,1.986616552E-1,5.890573859E-1,-1.018907949E-1
2.810333594E0,1.933353394E-1,5.741437078E-1,-7.845499367E-2
2.812338073E0,1.922700703E-1,5.560342073E-1,-4.756234959E-2
2.814342552E0,1.848132312E-1,5.421857834E-1,-2.625708096E-2
2.816347031E0,1.805521846E-1,5.219457746E-1,-4.951810464E-3
2.818351511E0,1.741605997E-1,5.038363338E-1,1.741872355E-2
2.820355990E0,1.709648073E-1,4.867921472E-1,4.085452482E-2
2.822360469E0,1.635079682E-1,4.633563757E-1,5.576821044E-2
2.824364948E0,1.539205909E-1,4.452468753E-1,7.387769222E-2
2.826369427E0,1.485942751E-1,4.303331971E-1,8.772611618E-2
2.828373906E0,1.347458512E-1,4.100931883E-1,1.079661250E-1
2.830378386E0,1.240932047E-1,3.951795101E-1,1.154229641E-1
2.832382865E0,1.102447808E-1,3.738742173E-1,1.282061338E-1
2.834387344E0,9.639635682E-2,3.610910773E-1,1.367282420E-1
2.836391823E0,8.254793286E-2,3.429815769E-1,1.441850811E-1
2.838396302E0,6.230792403E-2,3.270026445E-1,1.516419202E-1
2.840400781E0,4.419844598E-2,3.195457757E-1,1.559029818E-1
2.842405261E0,2.821949683E-2,3.025015593E-1,1.622945666E-1
2.844409792E0,1.011001691E-2,2.843920887E-1,1.633598208E-1
2.846414323E0,-9.064726532E-3,2.748047113E-1,1.676208824E-1
2.848418854E0,-3.036999702E-2,2.556299865E-1,1.697514057E-1
2.850423386E0,-4.741421342E-2,2.385857403E-1,1.686861366E-1
2.852427917E0,-6.445842981E-2,2.183457166E-1,1.686861366E-1
2.854432448E0,-7.617633045E-2,2.002362460E-1,1.708166748E-1
2.856436979E0,-9.002475441E-2,1.853225529E-1,1.686861366E-1
2.858441511E0,-9.961213171E-2,1.682783365E-1,1.622945666E-1
2.860446042E0,-1.102647632E-1,1.448425353E-1,1.665556133E-1
2.862450573E0,-1.145258173E-1,1.288635880E-1,1.580335051E-1
2.864455104E0,-1.145258173E-1,1.128846556E-1,1.622945666E-1
2.866459636E0,-1.177216098E-1,9.051411599E-2,1.505766660E-1
2.868464167E0,-1.145258173E-1,7.666568458E-2,1.537724584E-1
2.870468698E0,-1.177216098E-1,6.068673730E-2,1.495113969E-1
2.872473229E0,-1.134605557E-1,5.109935999E-2,1.431198120E-1
2.874477761E0,-1.123952940E-1,3.725093603E-2,1.388587654E-1
2.876482292E0,-1.070689708E-1,2.979408950E-2,1.388587654E-1
2.878486823E0,-1.038731858E-1,1.807619259E-2,1.409892887E-1
2.880491354E0,-1.006773934E-1,1.061934698E-2,1.388587654E-1
2.882495886E0,-9.215528518E-2,3.162502311E-3,1.420545578E-1
2.884500417E0,-8.576370776E-2,1.031975262E-3,1.431198120E-1
2.886504948E0,-8.043738455E-2,-9.620659985E-3,1.452503502E-1
2.888509479E0,-7.617633045E-2,-1.068592351E-2,1.484461427E-1
2.890514011E0,-7.085001469E-2,-1.494697761E-2,1.559029818E-1
2.892518542E0,-6.019737571E-2,-2.027329430E-2,1.697514057E-1
2.894523073E0,-5.487105995E-2,-2.346908674E-2,1.729471982E-1
2.896527604E0,-4.421842843E-2,-2.559961379E-2,1.825345755E-1
2.898532136E0,-3.463105112E-2,-2.666487545E-2,1.974482536E-1
2.900536667E0,-3.036999702E-2,-3.305645660E-2,2.134272158E-1
2.902541198E0,-1.865209825E-2,-3.625224903E-2,2.251451015E-1
2.904545729E0,-6.934199482E-3,-4.264383018E-2,2.379282713E-1
2.906550209E0,-1.607881859E-3,-4.477435350E-2,2.539072335E-1
2.908554688E0,1.011001691E-2,-4.797014594E-2,2.677556574E-1
2.910559167E0,2.289317921E-2,-5.542699248E-2,2.858651280E-1
2.912563646E0,2.928475849E-2,-6.075330824E-2,3.007788062E-1
2.914568125E0,3.674159944E-2,-6.821015477E-2,3.146272302E-1
2.916572604E0,3.993739188E-2,-8.099331707E-2,3.348672390E-1
2.918577084E0,4.419844598E-2,-9.164594859E-2,3.497809470E-1
2.920581563E0,4.313318431E-2,-1.044291109E-1,3.678904176E-1
2.922586042E0,4.739423841E-2,-1.172122732E-1,3.870651722E-1
2.924590521E0,4.845950007E-2,-1.395828128E-1,4.073051810E-1
2.926595000E0,5.272055417E-2,-1.640838832E-1,4.222188592E-1
2.928599479E0,5.272055417E-2,-1.832586229E-1,4.381978214E-1
2.930603959E0,5.272055417E-2,-2.098902166E-1,4.573725462E-1
2.932608438E0,5.591634661E-2,-2.354565412E-1,4.733515084E-1
2.934612917E0,5.591634661E-2,-2.642186284E-1,4.903957248E-1
2.936617396E0,5.485108495E-2,-2.951112688E-1,5.053094029E-1
2.938621875E0,5.485108495E-2,-3.228081167E-1,5.202230811E-1
2.940626354E0,5.272055417E-2,-3.547660112E-1,5.319409966E-1
2.942630834E0,5.378581583E-2,-3.867239356E-1,5.393978357E-1
2.944635313E0,5.059003085E-2,-4.229428768E-1,5.511157513E-1
2.946639792E0,5.272055417E-2,-4.527702630E-1,5.607030988E-1
2.948644271E0,5.698160827E-2,-4.804671109E-1,5.649641752E-1
2.950648750E0,5.272055417E-2,-5.070987344E-1,5.713557601E-1
2.952653229E0,5.059003085E-2,-5.315998197E-1,5.745515227E-1
2.954657709E0,5.272055417E-2,-5.571661592E-1,5.756168365E-1
2.956662188E0,5.272055417E-2,-5.774061680E-1,5.756168365E-1
2.958666667E0,5.378581583E-2,-5.987114310E-1,5.724210143E-1
2.960671146E0,5.165529251E-2,-6.232125163E-1,5.681599379E-1
2.962675625E0,5.165529251E-2,-6.445177794E-1,5.649641752E-1
2.964680104E0,4.952476174E-2,-6.647577882E-1,5.660294294E-1
2.966684584E0,4.845950007E-2,-6.828672290E-1,5.617683530E-1
2.968689063E0,4.206792265E-2,-7.052378058E-1,5.553768277E-1
2.970693542E0,4.419844598E-2,-7.222819924E-1,5.511157513E-1
2.972698021E0,4.206792265E-2,-7.382609248E-1,5.415284038E-1
2.974702500E0,3.993739188E-2,-7.531746626E-1,5.308757424E-1
2.976706979E0,3.993739188E-2,-7.680883408E-1,5.244841576E-1
2.978711459E0,3.248054534E-2,-7.861977816E-1,5.138314962E-1
2.980715938E0,3.035002388E-2,-8.000462651E-1,5.010483861E-1
2.982720417E0,2.395844273E-2,-8.192209601E-1,4.957220554E-1
2.984724896E0,1.756686158E-2,-8.341346979E-1,4.840041399E-1
2.986729375E0,1.117528044E-2,-8.501136303E-1,4.690904617E-1
2.988733854E0,9.044753388E-3,-8.597009778E-1,4.595030844E-1
2.990738334E0,-4.803672433E-3,-8.778104782E-1,4.488504529E-1
2.992742813E0,-1.012999006E-2,-8.916589022E-1,4.360672832E-1
2.994747292E0,-1.545630768E-2,-8.991157413E-1,4.243493974E-1
2.996751771E0,-2.823946998E-2,-9.150946736E-1,4.136967659E-1
2.998756250E0,-3.356578946E-2,-9.246820807E-1,3.987830579E-1
3.000760729E0,-4.528369009E-2,-9.395957589E-1,3.838693798E-1
3.002765209E0,-4.847948253E-2,-9.417262673E-1,3.710862100E-1
3.004769688E0,-5.806685239E-2,-9.491831064E-1,3.572377861E-1
3.006774167E0,-6.658896059E-2,-9.534441829E-1,3.455199003E-1
3.008778646E0,-6.978475302E-2,-9.545094371E-1,3.284756839E-1
3.010783125E0,-7.511106879E-2,-9.513136744E-1,3.188883066E-1
3.012787604E0,-7.830686122E-2,-9.513136744E-1,3.029093444E-1
3.014792084E0,-7.937212288E-2,-9.491831064E-1,2.890609205E-1
3.016796563E0,-8.256791532E-2,-9.438568354E-1,2.720167041E-1
3.018801042E0,-7.724159956E-2,-9.278778434E-1,2.549724877E-1
3.020805521E0,-7.404580712E-2,-9.150946736E-1,2.357977480E-1
3.022810000E0,-6.871949136E-2,-8.980504870E-1,2.219493240E-1
3.024814479E0,-6.658896059E-2,-8.895283937E-1,2.059703618E-1
3.026818959E0,-6.232790649E-2,-8.660925627E-1,1.942524612E-1
3.028823438E0,-6.019737571E-2,-8.511788845E-1,1.804040372E-1
3.030827917E0,-5.167526752E-2,-8.341346979E-1,1.633598208E-1
3.032832396E0,-4.421842843E-2,-8.128293753E-1,1.484461427E-1
3.034836875E0,-4.102263600E-2,-7.925893664E-1,1.335324496E-1
3.036841354E0,-3.676158190E-2,-7.702188492E-1,1.228798106E-1
3.038845834E0,-2.823946998E-2,-7.531746626E-1,1.090313867E-1
3.040850313E0,-2.078262530E-2,-7.297388315E-1,9.731348604E-2
3.042854792E0,-1.332578063E-2,-7.063030601E-1,8.133453131E-2
3.044859271E0,-7.999463007E-3,-6.849977970E-1,6.855136901E-2
3.046863750E0,-5.426183343E-4,-6.636925340E-1,5.470294878E-2
3.048868229E0,4.783699289E-3,-6.413219571E-1,4.405031353E-2
3.050872709E0,1.543633454E-2,-6.200166941E-1,3.126715124E-2
3.052877188E0,2.502370626E-2,-6.051030159E-1,1.954925060E-2
3.054881667E0,2.715423144E-2,-5.837977529E-1,8.896614425E-3
3.056886146E0,3.035002388E-2,-5.603619218E-1,-9.212864563E-3
3.058890625E0,3.567633778E-2,-5.422524810E-1,-2.093076333E-2
3.060895104E0,4.100265354E-2,-5.156208873E-1,-2.945287153E-2
3.062899584E0,4.419844598E-2,-4.943155348E-1,-4.330129549E-2
3.064904063E0,4.313318431E-2,-4.698144794E-1,-5.821498483E-2
3.066908542E0,5.378581583E-2,-4.463786781E-1,-6.673710048E-2
3.068913021E0,6.337319314E-2,-4.154860377E-1,-8.378131688E-2
3.070917500E0,6.656897813E-2,-3.931155205E-1,-9.549921006E-2
3.072921979E0,7.296056300E-2,-3.664839268E-1,-1.040213183E-1
3.074926459E0,7.722161710E-2,-3.387870789E-1,-1.210655347E-1
3.076930938E0,8.467845619E-2,-3.110902309E-1,-1.317181736E-1
3.078935417E0,9.107004106E-2,-2.823280990E-1,-1.402402818E-1
3.080939896E0,9.107004106E-2,-2.503702343E-1,-1.519581825E-1
3.082944375E0,9.000477940E-2,-2.248039097E-1,-1.636760831E-1
3.084948854E0,9.107004106E-2,-1.960417926E-1,-1.775245070E-1
3.086953334E0,8.893951774E-2,-1.608880907E-1,-1.839160919E-1
3.088957813E0,8.680898696E-2,-1.342564970E-1,-2.009603083E-1
3.090962292E0,8.574372530E-2,-1.065596342E-1,-2.148087323E-1
3.092966771E0,8.574372530E-2,-8.205857873E-2,-2.222655714E-1
3.094971250E0,9.107004106E-2,-5.329646170E-2,-2.371792644E-1
3.096975729E0,9.107004106E-2,-2.986066788E-2,-2.425055802E-1
3.098980209E0,9.426583350E-2,-3.229078837E-3,-2.531582117E-1
3.100984688E0,9.959214926E-2,2.340251207E-2,-2.616803348E-1
3.102989167E0,9.746162593E-2,4.044672847E-2,-2.680718899E-1
3.104993646E0,1.017226726E-1,6.494779140E-2,-2.787245512E-1
3.106998125E0,1.006574109E-1,7.986147702E-2,-2.872466445E-1
3.109002604E0,1.027879417E-1,9.584043175E-2,-2.925729752E-1
3.111007084E0,1.027879417E-1,1.107541174E-1,-3.032256067E-1
3.113011563E0,1.006574109E-1,1.214067414E-1,-3.085519075E-1
3.115016042E0,1.017226726E-1,1.341899037E-1,-3.224003315E-1
3.117020521E0,9.746162593E-2,1.395162195E-1,-3.255961239E-1
3.119025000E0,1.017226726E-1,1.459078044E-1,-3.362487555E-1
3.121029479E0,9.959214926E-2,1.522993892E-1,-3.405098319E-1
3.123033959E0,9.533109516E-2,1.512341201E-1,-3.469014168E-1
3.125038438E0,8.893951774E-2,1.554951668E-1,-3.554235101E-1
3.127042917E0,8.574372530E-2,1.576257050E-1,-3.543582559E-1
3.129047396E0,8.041740954E-2,1.565604359E-1,-3.607498407E-1
3.131051927E0,7.509108633E-2,1.501688510E-1,-3.618150949E-1
3.133056459E0,6.976477057E-2,1.565604359E-1,-3.660761416E-1
3.135060990E0,5.272055417E-2,1.459078044E-1,-3.671414256E-1
3.137065521E0,4.526370764E-2,1.437772810E-1,-3.714024723E-1
3.139070052E0,3.887213022E-2,1.395162195E-1,-3.745982647E-1
3.141074584E0,2.821949683E-2,1.405814886E-1,-3.756635189E-1
3.143079115E0,1.543633454E-2,1.352551728E-1,-3.809898496E-1
3.145083646E0,4.783699289E-3,1.267330647E-1,-3.841856122E-1
3.147088177E0,-1.012999006E-2,1.235372797E-1,-3.873814046E-1
3.149092709E0,-1.332578063E-2,1.182109639E-1,-3.927077353E-1
3.151097240E0,-1.971736178E-2,1.107541174E-1,-3.969687819E-1
3.153101771E0,-2.823946998E-2,1.128846556E-1,-4.044256210E-1
3.155106302E0,-3.995737433E-2,1.054278016E-1,-4.118824899E-1
3.157110834E0,-4.315315932E-2,9.584043175E-2,-4.193393290E-1
3.159115365E0,-4.634895176E-2,9.264463931E-2,-4.204045832E-1
3.161119896E0,-4.954474419E-2,8.944885433E-2,-4.257309139E-1
3.163124427E0,-5.274053663E-2,9.264463931E-2,-4.299919605E-1
3.165128959E0,-5.061000586E-2,8.944885433E-2,-4.299919605E-1
3.167133490E0,-5.700159073E-2,8.518779278E-2,-4.321224988E-1
3.169138021E0,-5.380579829E-2,8.199200779E-2,-4.289267063E-1
3.171142552E0,-5.913211405E-2,7.986147702E-2,-4.267961681E-1
3.173147084E0,-5.061000586E-2,8.092674613E-2,-4.278614223E-1
3.175151615E0,-5.167526752E-2,7.560042292E-2,-4.204045832E-1
3.177156146E0,-4.954474419E-2,7.133936882E-2,-4.246656299E-1
3.179160677E0,-4.954474419E-2,6.814357638E-2,-4.214698374E-1
3.181165209E0,-5.061000586E-2,6.388252974E-2,-4.193393290E-1
3.183169740E0,-5.061000586E-2,5.962146819E-2,-4.172087908E-1
3.185174271E0,-4.847948253E-2,5.429515243E-2,-4.108172059E-1
3.187178802E0,-4.954474419E-2,4.683831334E-2,-4.054909050E-1
3.189183334E0,-4.741421342E-2,4.790357500E-2,-4.001645744E-1
3.191187865E0,-4.741421342E-2,4.257725179E-2,-3.937729895E-1
3.193192344E0,-4.847948253E-2,4.577304423E-2,-3.852508962E-1
3.195196823E0,-4.634895176E-2,4.790357500E-2,-3.799245656E-1
3.197201302E0,-4.421842843E-2,4.896883667E-2,-3.767287731E-1
3.199205781E0,-4.528369009E-2,5.003409833E-2,-3.660761416E-1
3.201210261E0,-3.995737433E-2,5.642568320E-2,-3.628803492E-1
3.203214740E0,-4.102263600E-2,6.707831472E-2,-3.554235101E-1
3.205219219E0,-3.995737433E-2,7.133936882E-2,-3.522277176E-1
3.207223698E0,-3.889210522E-2,8.305726945E-2,-3.426403403E-1
3.209228177E0,-3.676158190E-2,9.157937765E-2,-3.362487555E-1
3.211232656E0,-3.995737433E-2,1.032972783E-1,-3.234656155E-1
3.213237136E0,-4.102263600E-2,1.150151715E-1,-3.213350773E-1
3.215241615E0,-4.634895176E-2,1.214067414E-1,-3.128129840E-1
3.217246094E0,-4.847948253E-2,1.277983189E-1,-3.064213991E-1
3.219250573E0,-4.954474419E-2,1.395162195E-1,-3.010950685E-1
3.221255052E0,-5.487105995E-2,1.395162195E-1,-2.904424369E-1
3.223259531E0,-5.913211405E-2,1.459078044E-1,-2.893771827E-1
3.225264011E0,-5.806685239E-2,1.491035968E-1,-2.797898054E-1
3.227268490E0,-6.019737571E-2,1.554951668E-1,-2.744634748E-1
3.229272969E0,-6.339316815E-2,1.629520208E-1,-2.680718899E-1
3.231277448E0,-6.232790649E-2,1.725393832E-1,-2.627455890E-1
3.233281927E0,-6.232790649E-2,1.799962372E-1,-2.616803348E-1
3.235286406E0,-6.658896059E-2,1.874530762E-1,-2.584845424E-1
3.237290886E0,-6.232790649E-2,2.002362460E-1,-2.552887499E-1
3.239295365E0,-6.552369893E-2,2.087583542E-1,-2.499624193E-1
3.241299844E0,-5.913211405E-2,2.236720324E-1,-2.563540041E-1
3.243304323E0,-6.019737571E-2,2.332594097E-1,-2.563540041E-1
3.245308802E0,-5.167526752E-2,2.492383868E-1,-2.595497966E-1
3.247313281E0,-5.061000586E-2,2.630868256E-1,-2.595497966E-1
3.249317761E0,-4.528369009E-2,2.780005038E-1,-2.648761272E-1
3.251322240E0,-4.102263600E-2,2.950447202E-1,-2.616803348E-1
3.253326719E0,-3.463105112E-2,3.088931441E-1,-2.648761272E-1
3.255331198E0,-3.036999702E-2,3.238068521E-1,-2.648761272E-1
3.257335677E0,-2.717420645E-2,3.419163227E-1,-2.627455890E-1
3.259340156E0,-1.971736178E-2,3.600257933E-1,-2.691371739E-1
3.261344636E0,-2.078262530E-2,3.760047555E-1,-2.702024281E-1
3.263349115E0,-1.012999006E-2,3.887879252E-1,-2.744634748E-1
3.265353594E0,-7.999463007E-3,3.983752728E-1,-2.797898054E-1
3.267358073E0,-4.803672433E-3,4.132889807E-1,-2.808550596E-1
3.269362552E0,1.587908715E-3,4.260721505E-1,-2.936382294E-1
3.271367031E0,1.117528044E-2,4.420510828E-1,-3.032256067E-1
3.273371511E0,1.117528044E-2,4.495079517E-1,-3.085519075E-1
3.275375990E0,1.650159806E-2,4.612258375E-1,-3.160087466E-1
3.277380469E0,2.289317921E-2,4.697479308E-1,-3.245308697E-1
3.279384948E0,2.608896978E-2,4.750742614E-1,-3.287919164E-1
3.281389427E0,3.354581445E-2,4.814658165E-1,-3.351835012E-1
3.283393906E0,3.674159944E-2,4.889227152E-1,-3.394445479E-1
3.285398386E0,3.887213022E-2,4.931837022E-1,-3.469014168E-1
3.287402865E0,4.313318431E-2,5.006405115E-1,-3.532929718E-1
3.289407344E0,4.100265354E-2,4.995752871E-1,-3.554235101E-1
3.291411823E0,3.887213022E-2,5.049015880E-1,-3.532929718E-1
3.293416302E0,3.887213022E-2,5.038363338E-1,-3.554235101E-1
3.295420781E0,4.100265354E-2,5.091626644E-1,-3.554235101E-1
3.297425261E0,3.674159944E-2,5.112931728E-1,-3.511624634E-1
3.299429740E0,3.567633778E-2,5.123584270E-1,-3.490319252E-1
3.301434219E0,3.354581445E-2,5.134236813E-1,-3.447708786E-1
3.303438698E0,3.035002388E-2,5.123584270E-1,-3.394445479E-1
3.305443177E0,2.715423144E-2,5.144889355E-1,-3.319877088E-1
3.307447656E0,2.608896978E-2,5.134236813E-1,-3.234656155E-1
3.309452136E0,1.437107101E-2,5.112931728E-1,-3.149434924E-1
3.311456615E0,1.224054396E-2,5.134236813E-1,-3.064213991E-1
3.313461094E0,3.718435764E-3,5.134236813E-1,-2.925729752E-1
3.315465573E0,5.226451904E-4,5.091626644E-1,-2.808550596E-1
3.317470052E0,-1.332578063E-2,5.070320964E-1,-2.680718899E-1
3.319474531E0,-1.758683473E-2,5.017057657E-1,-2.563540041E-1
3.321479011E0,-1.971736178E-2,4.985100329E-1,-2.403750569E-1
3.323483490E0,-3.036999702E-2,4.889227152E-1,-2.190697789E-1
3.325487969E0,-3.463105112E-2,4.825311303E-1,-2.030908316E-1
3.327492448E0,-3.889210522E-2,4.761395156E-1,-1.871118695E-1
3.329496927E0,-4.208789766E-2,4.665521383E-1,-1.700676531E-1
3.331501406E0,-4.634895176E-2,4.569647908E-1,-1.519581825E-1
3.333505886E0,-4.954474419E-2,4.484426677E-1,-1.359792203E-1
3.335510365E0,-5.167526752E-2,4.356594980E-1,-1.221307963E-1
3.337514844E0,-5.487105995E-2,4.218110740E-1,-1.104129031E-1
3.339519323E0,-5.913211405E-2,4.068973958E-1,-9.656447172E-2
3.341523802E0,-5.700159073E-2,3.994405568E-1,-8.165078610E-2
3.343528281E0,-5.806685239E-2,3.845268488E-1,-6.034551188E-2
3.345532761E0,-5.593632162E-2,3.792005479E-1,-4.756234959E-2
3.347537240E0,-5.913211405E-2,3.717437088E-1,-2.625708096E-2
3.349541719E0,-6.019737571E-2,3.610910773E-1,-1.666970924E-2
3.351546198E0,-6.019737571E-2,3.504384160E-1,-2.821283648E-3
3.353550677E0,-6.126264483E-2,3.365899920E-1,1.422293205E-2
3.355555156E0,-5.806685239E-2,3.238068521E-1,2.700609528E-2
3.357559636E0,-5.380579829E-2,3.099584281E-1,3.659347072E-2
3.359564115E0,-5.487105995E-2,3.014363050E-1,4.085452482E-2
3.361568594E0,-5.061000586E-2,2.950447202E-1,4.511557892E-2
3.363573073E0,-4.634895176E-2,2.854573429E-1,6.002926081E-2
3.365577552E0,-4.634895176E-2,2.790657878E-1,6.855136901E-2
3.367582031E0,-4.208789766E-2,2.748047113E-1,7.068189979E-2
3.369586511E0,-4.208789766E-2,2.630868256E-1,8.239980042E-2
3.371590990E0,-4.208789766E-2,2.684131265E-1,8.879137784E-2
3.373595469E0,-4.528369009E-2,2.609562874E-1,9.731348604E-2
3.375599948E0,-3.995737433E-2,2.524341941E-1,1.047703326E-1
3.377604427E0,-4.847948253E-2,2.503036559E-1,1.122271717E-1
3.379608906E0,-5.167526752E-2,2.481731027E-1,1.228798106E-1
3.381613386E0,-5.700159073E-2,2.396510094E-1,1.303366572E-1
3.383617865E0,-5.806685239E-2,2.353899479E-1,1.399240196E-1
3.385622344E0,-6.765422225E-2,2.343246639E-1,1.452503502E-1
3.387626823E0,-7.191527635E-2,2.289983630E-1,1.548377126E-1
3.389631302E0,-7.511106879E-2,2.258025706E-1,1.622945666E-1
3.391635781E0,-8.150264621E-2,2.258025706E-1,1.750777215E-1
3.393640261E0,-8.363317698E-2,2.183457166E-1,1.835998297E-1
3.395644740E0,-8.469843864E-2,2.247373015E-1,1.963829994E-1
3.397649219E0,-8.895949274E-2,2.247373015E-1,2.091661543E-1
3.399653698E0,-8.682896942E-2,2.279330939E-1,2.198187858E-1
3.401658177E0,-8.576370776E-2,2.300636172E-1,2.315366864E-1
3.403662656E0,-8.789423108E-2,2.343246639E-1,2.421893179E-1
3.405667136E0,-8.469843864E-2,2.375204563E-1,2.507114410E-1
3.407671615E0,-8.576370776E-2,2.364552021E-1,2.677556574E-1
3.409676094E0,-7.830686122E-2,2.449773401E-1,2.762777507E-1
3.411680573E0,-7.404580712E-2,2.471078485E-1,2.943872511E-1
3.413685052E0,-7.191527635E-2,2.503036559E-1,3.082356751E-1
3.415689584E0,-6.445842981E-2,2.513689101E-1,3.156925142E-1
3.417694115E0,-5.806685239E-2,2.588257790E-1,3.274103999E-1
3.419698646E0,-5.700159073E-2,2.620215416E-1,3.455199003E-1
3.421703177E0,-4.847948253E-2,2.684131265E-1,3.529767394E-1
3.423707709E0,-3.782684356E-2,2.716089189E-1,3.614988327E-1
3.425712240E0,-3.143525869E-2,2.811962962E-1,3.710862100E-1
3.427716771E0,-2.291315235E-2,2.854573429E-1,3.796083331E-1
3.429721302E0,-1.652157120E-2,2.939794660E-1,3.859998882E-1
3.431725834E0,-5.868935958E-3,3.014363050E-1,3.859998882E-1
3.433730365E0,2.653172240E-3,3.025015593E-1,3.998483419E-1
3.435734896E0,1.117528044E-2,3.088931441E-1,3.998483419E-1
3.437739427E0,1.969738863E-2,3.067626357E-1,3.966525495E-1
3.439743959E0,2.502370626E-2,3.120889366E-1,3.934567571E-1
3.441748490E0,3.461107612E-2,3.099584281E-1,3.966525495E-1
3.443753021E0,4.739423841E-2,3.131542206E-1,3.934567571E-1
3.445757552E0,5.059003085E-2,3.099584281E-1,3.870651722E-1
3.447762084E0,5.911213905E-2,3.056973517E-1,3.870651722E-1
3.449766615E0,6.337319314E-2,3.067626357E-1,3.838693798E-1
3.451771146E0,6.550371647E-2,3.025015593E-1,3.817388415E-1
3.453775677E0,6.869950891E-2,3.014363050E-1,3.753472567E-1
3.455780209E0,7.083003223E-2,2.971752584E-1,3.742820024E-1
3.457784740E0,7.189530134E-2,2.971752584E-1,3.732167482E-1
3.459789271E0,7.083003223E-2,2.822615504E-1,3.721514642E-1
3.461793802E0,7.509108633E-2,2.822615504E-1,3.710862100E-1
3.463798334E0,7.509108633E-2,2.780005038E-1,3.689556718E-1
3.465802865E0,7.828687876E-2,2.684131265E-1,3.721514642E-1
3.467807396E0,7.828687876E-2,2.620215416E-1,3.774777949E-1
3.469811927E0,7.828687876E-2,2.577604949E-1,3.796083331E-1
3.471816459E0,7.615634799E-2,2.524341941E-1,3.817388415E-1
3.473820990E0,7.615634799E-2,2.439120561E-1,3.902609646E-1
3.475825521E0,7.083003223E-2,2.364552021E-1,3.966525495E-1
3.477830052E0,7.189530134E-2,2.311288714E-1,4.051746428E-1
3.479834531E0,7.083003223E-2,2.215415090E-1,4.083704352E-1
3.481839011E0,7.189530134E-2,2.130194008E-1,4.168925285E-1
3.483843490E0,6.550371647E-2,2.034320384E-1,4.232841134E-1
3.485847969E0,6.763423979E-2,1.938446611E-1,4.296756983E-1
3.487852448E0,6.656897813E-2,1.874530762E-1,4.350020289E-1
3.489856927E0,6.763423979E-2,1.799962372E-1,4.403283298E-1
3.491861406E0,7.296056300E-2,1.757351756E-1,4.435241222E-1
3.493865886E0,7.189530134E-2,1.661478132E-1,4.552420378E-1
3.495870365E0,7.509108633E-2,1.640172899E-1,4.552420378E-1
3.497874844E0,8.041740954E-2,1.586909592E-1,4.616336226E-1
3.499879323E0,8.893951774E-2,1.501688510E-1,4.669599235E-1
3.501883802E0,9.000477940E-2,1.416467428E-1,4.754820466E-1
3.503888281E0,9.639635682E-2,1.363204271E-1,4.722862542E-1
3.505892761E0,9.852688760E-2,1.235372797E-1,4.733515084E-1
3.507897240E0,1.006574109E-1,1.182109639E-1,4.722862542E-1
3.509901719E0,1.049184650E-1,1.054278016E-1,4.733515084E-1
3.511906198E0,1.091795191E-1,9.903622419E-2,4.690904617E-1
3.513910677E0,1.145058423E-1,9.584043175E-2,4.658946693E-1
3.515915156E0,1.145058423E-1,8.838358521E-2,4.616336226E-1
3.517919636E0,1.166363657E-1,7.879621536E-2,4.605683386E-1
3.519924115E0,1.198321581E-1,7.346989959E-2,4.552420378E-1
3.521928594E0,1.240932047E-1,6.601305306E-2,4.467199147E-1
3.523933073E0,1.240932047E-1,5.855620652E-2,4.445894063E-1
3.525937552E0,1.272889972E-1,5.109935999E-2,4.371325374E-1
3.527942031E0,1.283542663E-1,3.938146681E-2,4.328714907E-1
3.529946511E0,1.294195354E-1,3.618567437E-2,4.243493974E-1
3.531950990E0,1.304847896E-1,2.659830451E-2,4.200883210E-1
3.533955469E0,1.251584738E-1,2.127198130E-2,4.168925285E-1
3.535959948E0,1.230279505E-1,1.488040108E-2,4.147620201E-1
3.537964427E0,1.230279505E-1,9.554083459E-3,4.051746428E-1
3.539968906E0,1.155711040E-1,2.097238787E-3,4.041093886E-1
3.541973386E0,1.102447808E-1,-9.620659985E-3,3.998483419E-1
3.543977865E0,1.038532034E-1,-2.133855969E-2,3.998483419E-1
3.545982344E0,9.746162593E-2,-1.920803264E-2,3.955872655E-1
3.547986823E0,9.000477940E-2,-3.092592955E-2,3.945220113E-1
3.549991302E0,7.935214043E-2,-4.157856479E-2,3.945220113E-1
3.551995781E0,7.615634799E-2,-5.010067299E-2,3.945220113E-1
3.554000261E0,6.656897813E-2,-6.075330824E-2,3.923914731E-1
3.556004740E0,5.591634661E-2,-7.460173219E-2,3.998483419E-1
3.558009219E0,4.739423841E-2,-8.099331707E-2,3.977178037E-1
3.560013698E0,3.993739188E-2,-8.845015615E-2,3.977178037E-1
3.562018177E0,3.567633778E-2,-1.001680568E-1,3.987830579E-1
3.564022656E0,2.182791568E-2,-1.022985876E-1,4.009135962E-1
3.566027136E0,1.117528044E-2,-1.140164807E-1,4.030441046E-1
3.568031615E0,2.653172240E-3,-1.236038506E-1,4.083704352E-1
3.570036094E0,-3.738408908E-3,-1.321259588E-1,4.073051810E-1
3.572040573E0,-1.865209825E-2,-1.385175586E-1,4.105009735E-1
3.574045052E0,-2.397841588E-2,-1.513007283E-1,4.158272743E-1
3.576049531E0,-3.782684356E-2,-1.544965059E-1,4.147620201E-1
3.578054011E0,-4.421842843E-2,-1.619533598E-1,4.200883210E-1
3.580058490E0,-4.634895176E-2,-1.672796756E-1,4.222188592E-1
3.582062969E0,-6.019737571E-2,-1.789975762E-1,4.243493974E-1
3.584067448E0,-6.978475302E-2,-1.843238920E-1,4.328714907E-1
3.586071927E0,-7.404580712E-2,-1.875196844E-1,4.286104441E-1
3.588076406E0,-8.363317698E-2,-1.896502078E-1,4.339367747E-1
3.590080886E0,-9.215528518E-2,-1.928460002E-1,4.328714907E-1
3.592085365E0,-1.028079242E-1,-1.992375851E-1,4.403283298E-1
3.594089844E0,-1.113300323E-1,-2.003028393E-1,4.381978214E-1
3.596094323E0,-1.177216098E-1,-2.024333775E-1,4.424588680E-1
3.598098802E0,-1.241131872E-1,-2.056291550E-1,4.520462453E-1
3.600103281E0,-1.294395030E-1,-2.066944242E-1,4.509809613E-1
3.602107761E0,-1.379616112E-1,-2.056291550E-1,4.509809613E-1
3.604112240E0,-1.464837193E-1,-2.077596933E-1,4.541767538E-1
3.606116719E0,-1.486142576E-1,-2.056291550E-1,4.637641311E-1
3.608121198E0,-1.571363658E-1,-1.992375851E-1,4.626988769E-1
3.610125677E0,-1.656584740E-1,-1.971070468E-1,4.658946693E-1
3.612130156E0,-1.720500439E-1,-1.907154769E-1,4.658946693E-1
3.614134636E0,-1.763111055E-1,-1.885849386E-1,4.648294151E-1
3.616139115E0,-1.827026904E-1,-1.832586229E-1,4.733515084E-1
3.618143594E0,-1.869637370E-1,-1.789975762E-1,4.744167626E-1
3.620148073E0,-1.901595294E-1,-1.758017838E-1,4.744167626E-1
3.622152552E0,-1.976163685E-1,-1.704754680E-1,4.754820466E-1
3.624157031E0,-2.008121610E-1,-1.672796756E-1,4.808083475E-1
3.626161511E0,-2.061384767E-1,-1.651491523E-1,4.797430933E-1
3.628165990E0,-2.082690150E-1,-1.523659825E-1,4.722862542E-1
3.630170469E0,-2.135953307E-1,-1.502354592E-1,4.744167626E-1
3.632174948E0,-2.178563774E-1,-1.470396668E-1,4.701557159E-1
3.634179427E0,-2.242479622E-1,-1.459743977E-1,4.669599235E-1
3.636183906E0,-2.285090089E-1,-1.395828128E-1,4.648294151E-1
3.638188386E0,-2.295742780E-1,-1.427786052E-1,4.616336226E-1
3.640192865E0,-2.359658629E-1,-1.417133510E-1,4.541767538E-1
3.642197344E0,-2.380963862E-1,-1.417133510E-1,4.477851987E-1
3.644201823E0,-2.423574477E-1,-1.374522895E-1,4.381978214E-1
3.646206302E0,-2.476837635E-1,-1.321259588E-1,4.307409823E-1
3.648210781E0,-2.476837635E-1,-1.342564970E-1,4.222188592E-1
3.650215261E0,-2.498142868E-1,-1.363870353E-1,4.105009735E-1
3.652219740E0,-2.519448102E-1,-1.385175586E-1,3.977178037E-1
3.654224219E0,-2.562058270E-1,-1.353217512E-1,3.849346340E-1
3.656228698E0,-2.540753484E-1,-1.353217512E-1,3.764125407E-1
3.658233177E0,-2.540753484E-1,-1.406480819E-1,3.593683243E-1
3.660237656E0,-2.562058270E-1,-1.385175586E-1,3.476504087E-1
3.662242136E0,-2.604669034E-1,-1.406480819E-1,3.348672390E-1
3.664246615E0,-2.594016194E-1,-1.470396668E-1,3.263451457E-1
3.666251094E0,-2.625974119E-1,-1.534312516E-1,3.135619760E-1
3.668255573E0,-2.647279501E-1,-1.544965059E-1,2.986482978E-1
3.670260052E0,-2.679237425E-1,-1.576922983E-1,2.890609205E-1
3.672264531E0,-2.700542510E-1,-1.683449447E-1,2.847998738E-1
3.674269011E0,-2.743153274E-1,-1.715407223E-1,2.730819583E-1
3.676273490E0,-2.764458358E-1,-1.768670380E-1,2.634946108E-1
3.678277969E0,-2.743153274E-1,-1.843238920E-1,2.571030259E-1
3.680282448E0,-2.743153274E-1,-1.939112544E-1,2.507114410E-1
3.682286927E0,-2.828374207E-1,-1.960417926E-1,2.475156337E-1
3.684291406E0,-2.828374207E-1,-2.034986317E-1,2.326019555E-1
3.686295886E0,-2.881637514E-1,-2.120207399E-1,2.379282713E-1
3.688300365E0,-2.892290056E-1,-2.173470557E-1,2.294061631E-1
3.690304844E0,-2.924247980E-1,-2.194775939E-1,2.294061631E-1
3.692309323E0,-3.020121753E-1,-2.258691639E-1,2.283408940E-1
3.694313802E0,-3.052079678E-1,-2.311954796E-1,2.251451015E-1
3.696318281E0,-3.105342686E-1,-2.397175878E-1,2.230145782E-1
3.698322761E0,-3.243826926E-1,-2.439786494E-1,2.251451015E-1
3.700327240E0,-3.265132308E-1,-2.471744418E-1,2.208840549E-1
3.702331719E0,-3.307742774E-1,-2.482396960E-1,2.198187858E-1
3.704336250E0,-3.414269090E-1,-2.546312809E-1,2.262103707E-1
3.706340781E0,-3.446227014E-1,-2.610228360E-1,2.240798473E-1
3.708345313E0,-3.488837779E-1,-2.620880902E-1,2.251451015E-1
3.710349844E0,-3.552753329E-1,-2.663491666E-1,2.240798473E-1
3.712354375E0,-3.574058712E-1,-2.663491666E-1,2.262103707E-1
3.714358906E0,-3.616669178E-1,-2.663491666E-1,2.251451015E-1
3.716363438E0,-3.659279943E-1,-2.706102133E-1,2.208840549E-1
3.718367969E0,-3.648627102E-1,-2.727407217E-1,2.187535316E-1
3.720372500E0,-3.659279943E-1,-2.695449293E-1,2.198187858E-1
3.722377031E0,-3.712542951E-1,-2.770017982E-1,2.219493240E-1
3.724381563E0,-3.712542951E-1,-2.727407217E-1,2.208840549E-1
3.726386094E0,-3.712542951E-1,-2.780670524E-1,2.166230083E-1
3.728390625E0,-3.712542951E-1,-2.748712599E-1,2.166230083E-1
3.730395156E0,-3.712542951E-1,-2.738060057E-1,2.144924700E-1
3.732399688E0,-3.680585027E-1,-2.791323066E-1,2.102314234E-1
3.734404219E0,-3.627322018E-1,-2.780670524E-1,2.112966776E-1
3.736408750E0,-3.627322018E-1,-2.791323066E-1,2.102314234E-1
3.738413281E0,-3.606016636E-1,-2.823280990E-1,2.081008852E-1
3.740417813E0,-3.542100787E-1,-2.770017982E-1,2.038398385E-1
3.742422344E0,-3.542100787E-1,-2.801975906E-1,2.038398385E-1
3.744426875E0,-3.499490321E-1,-2.770017982E-1,1.963829994E-1
3.746431406E0,-3.435574472E-1,-2.770017982E-1,1.931872070E-1
3.748435938E0,-3.392964005E-1,-2.791323066E-1,1.953177303E-1
3.750440469E0,-3.329048157E-1,-2.748712599E-1,1.899914145E-1
3.752445000E0,-3.265132308E-1,-2.780670524E-1,1.899914145E-1
3.754449531E0,-3.222521842E-1,-2.770017982E-1,1.867956221E-1
3.756454063E0,-3.190563917E-1,-2.770017982E-1,1.835998297E-1
3.758458594E0,-3.137300611E-1,-2.759365141E-1,1.814693063E-1
3.760463125E0,-3.084037602E-1,-2.801975906E-1,1.782735139E-1
3.762467656E0,-3.020121753E-1,-2.759365141E-1,1.761429906E-1
3.764472188E0,-2.966858447E-1,-2.791323066E-1,1.686861366E-1
3.766476667E0,-2.902942598E-1,-2.812628448E-1,1.697514057E-1
3.768481146E0,-2.892290056E-1,-2.801975906E-1,1.633598208E-1
3.770485625E0,-2.881637514E-1,-2.844586372E-1,1.633598208E-1
3.772490104E0,-2.807069123E-1,-2.919154763E-1,1.580335051E-1
3.774494584E0,-2.764458358E-1,-2.940460145E-1,1.580335051E-1
3.776499063E0,-2.764458358E-1,-2.951112688E-1,1.537724584E-1
3.778503542E0,-2.689889967E-1,-3.046986461E-1,1.559029818E-1
3.780508021E0,-2.700542510E-1,-3.089596927E-1,1.516419202E-1
3.782512500E0,-2.636626959E-1,-3.142860234E-1,1.495113969E-1
3.784516979E0,-2.625974119E-1,-3.174818158E-1,1.495113969E-1
3.786521459E0,-2.657932043E-1,-3.302649558E-1,1.441850811E-1
3.788525938E0,-2.583363652E-1,-3.334607482E-1,1.452503502E-1
3.790530417E0,-2.572711110E-1,-3.377217948E-1,1.441850811E-1
3.792534896E0,-2.583363652E-1,-3.483744562E-1,1.335324496E-1
3.794539375E0,-2.615321577E-1,-3.494397104E-1,1.409892887E-1
3.796543854E0,-2.615321577E-1,-3.537007570E-1,1.377934963E-1
3.798548334E0,-2.647279501E-1,-3.600923419E-1,1.324671805E-1
3.800552813E0,-2.625974119E-1,-3.632881343E-1,1.335324496E-1
3.802557292E0,-2.647279501E-1,-3.675491810E-1,1.335324496E-1
3.804561771E0,-2.679237425E-1,-3.728755116E-1,1.292713881E-1
3.806566250E0,-2.679237425E-1,-3.771365583E-1,1.239450797E-1
3.808570729E0,-2.625974119E-1,-3.792670965E-1,1.196840182E-1
3.810575209E0,-2.668584883E-1,-3.856586814E-1,1.228798106E-1
3.812579688E0,-2.647279501E-1,-3.941807747E-1,1.175534949E-1
3.814584167E0,-2.711195350E-1,-3.995071054E-1,1.175534949E-1
3.816588646E0,-2.711195350E-1,-4.027028680E-1,1.111619100E-1
3.818593125E0,-2.700542510E-1,-4.090944529E-1,1.069008559E-1
3.820597604E0,-2.743153274E-1,-4.176165760E-1,1.047703326E-1
3.822602084E0,-2.796416283E-1,-4.197471142E-1,9.837874770E-2
3.824606563E0,-2.817721665E-1,-4.240081608E-1,9.944401681E-2
3.826611042E0,-2.849679589E-1,-4.250734150E-1,8.985663950E-2
3.828615521E0,-2.892290056E-1,-4.250734150E-1,9.518295527E-2
3.830620000E0,-2.902942598E-1,-4.250734150E-1,8.666084707E-2
3.832624479E0,-2.977511287E-1,-4.272039533E-1,8.772611618E-2
3.834628959E0,-3.009469211E-1,-4.261386693E-1,8.133453131E-2
3.836633438E0,-3.030774295E-1,-4.176165760E-1,7.920400798E-2
3.838637917E0,-2.977511287E-1,-4.133555293E-1,7.813873887E-2
3.840642396E0,-2.924247980E-1,-4.133555293E-1,7.494295388E-2
3.842646875E0,-2.892290056E-1,-4.112249911E-1,7.281242311E-2
3.844651354E0,-2.817721665E-1,-4.027028680E-1,7.281242311E-2
3.846655834E0,-2.753805816E-1,-3.952460289E-1,6.002926081E-2
3.848660313E0,-2.700542510E-1,-3.888544440E-1,6.109452993E-2
3.850664792E0,-2.615321577E-1,-3.835281432E-1,5.576821044E-2
3.852669271E0,-2.508795559E-1,-3.771365583E-1,5.470294878E-2
3.854673750E0,-2.434227020E-1,-3.654186726E-1,4.724610224E-2
3.856678229E0,-2.359658629E-1,-3.558312953E-1,4.298504815E-2
3.858682709E0,-2.338353395E-1,-3.409175873E-1,4.085452482E-2
3.860687188E0,-2.306395471E-1,-3.228081167E-1,3.446293995E-2
3.862691667E0,-2.274437547E-1,-3.068291545E-1,3.339767829E-2
3.864696146E0,-2.242479622E-1,-2.823280990E-1,3.446293995E-2
3.866700625E0,-2.253132313E-1,-2.652838826E-1,3.446293995E-2
3.868705104E0,-2.253132313E-1,-2.514354885E-1,3.339767829E-2
3.870709584E0,-2.242479622E-1,-2.290649563E-1,3.020188585E-2
3.872714063E0,-2.189216465E-1,-2.056291550E-1,2.913662419E-2
3.874718542E0,-2.231826931E-1,-1.885849386E-1,3.339767829E-2
3.876723021E0,-2.221174389E-1,-1.726059914E-1,2.594083175E-2
3.878727500E0,-2.199869156E-1,-1.544965059E-1,2.381030470E-2
3.880731979E0,-2.263784856E-1,-1.342564970E-1,2.167977765E-2
3.882736459E0,-2.253132313E-1,-1.267996430E-1,2.167977765E-2
3.884740938E0,-2.295742780E-1,-1.097554266E-1,2.061451413E-2
3.886745417E0,-2.327700704E-1,-9.590700269E-2,1.422293205E-2
3.888749896E0,-2.285090089E-1,-8.205857873E-2,9.961877950E-3
3.890754375E0,-2.370311320E-1,-7.247120887E-2,8.896614425E-3
3.892758854E0,-2.402269095E-1,-6.288383156E-2,8.896614425E-3
3.894763334E0,-2.466184944E-1,-5.755751580E-2,1.439770451E-3
3.896767813E0,-2.444879711E-1,-5.116593838E-2,3.745069262E-4
3.898772292E0,-2.455532253E-1,-4.370909184E-2,3.745069262E-4
3.900776771E0,-2.487490177E-1,-4.157856479E-2,3.745069262E-4
3.902781250E0,-2.487490177E-1,-4.051330313E-2,-6.017073989E-3
3.904785729E0,-2.455532253E-1,-3.731751069E-2,-8.147601038E-3
3.906790209E0,-2.508795559E-1,-3.305645660E-2,-9.212864563E-3
3.908794688E0,-2.519448102E-1,-2.559961379E-2,-6.017073989E-3
3.910799167E0,-2.444879711E-1,-2.346908674E-2,-9.212864563E-3
3.912803646E0,-2.487490177E-1,-2.133855969E-2,-7.082337514E-3
3.914808125E0,-2.402269095E-1,-1.707750559E-2,-7.082337514E-3
3.916812604E0,-2.370311320E-1,-1.068592351E-2,-6.017073989E-3
3.918817084E0,-2.349005938E-1,-8.555396460E-3,-6.017073989E-3
3.920821563E0,-2.317048013E-1,-1.098551787E-3,-6.017073989E-3
3.922826042E0,-2.253132313E-1,4.227765836E-3,-1.756020123E-3
3.924830521E0,-2.189216465E-1,6.358292885E-3,-6.907565985E-4
3.926835000E0,-2.093342692E-1,1.061934698E-2,-2.821283648E-3
3.928839479E0,-1.997469068E-1,1.701092720E-2,3.570297500E-3
3.930843959E0,-1.901595294E-1,2.340251207E-2,6.766087376E-3
3.932848438E0,-1.827026904E-1,1.914145425E-2,9.961877950E-3
3.934852917E0,-1.741805822E-1,2.553303540E-2,1.209240500E-2
3.936857396E0,-1.592668891E-1,2.979408950E-2,1.741872355E-2
3.938861875E0,-1.454184651E-1,3.192462027E-2,1.635346003E-2
3.940866354E0,-1.379616112E-1,3.085935861E-2,2.167977765E-2
3.942870834E0,-1.262437105E-1,3.405514359E-2,2.700609528E-2
3.944875313E0,-1.145258173E-1,3.938146681E-2,2.807135880E-2
3.946879792E0,-9.535107762E-2,4.683831334E-2,2.807135880E-2
3.948884271E0,-8.789423108E-2,4.470778257E-2,3.659347072E-2
3.950888750E0,-7.404580712E-2,4.577304423E-2,3.978925943E-2
3.952893229E0,-6.765422225E-2,4.364252090E-2,5.044189468E-2
3.954897709E0,-5.380579829E-2,4.364252090E-2,5.044189468E-2
3.956902188E0,-4.741421342E-2,4.683831334E-2,5.896400288E-2
3.958906667E0,-4.315315932E-2,3.831619769E-2,6.322505325E-2
3.960911146E0,-2.930473350E-2,3.831619769E-2,6.642084569E-2
3.962915625E0,-2.291315235E-2,3.831619769E-2,7.068189979E-2
3.964920104E0,-1.971736178E-2,3.725093603E-2,7.281242311E-2
3.966924584E0,-2.078262530E-2,2.659830451E-2,8.133453131E-2
3.968929063E0,-2.610894293E-2,3.085935861E-2,8.239980042E-2
3.970933542E0,-2.504367940E-2,2.766356617E-2,8.985663950E-2
3.972938021E0,-2.930473350E-2,1.807619259E-2,9.944401681E-2
3.974942500E0,-2.823946998E-2,1.701092720E-2,1.015745401E-1
3.976946979E0,-3.250052407E-2,1.061934698E-2,1.079661250E-1
3.978951459E0,-2.610894293E-2,9.554083459E-3,1.100966483E-1
3.980955990E0,-2.823946998E-2,5.293029360E-3,1.154229641E-1
3.982960521E0,-2.397841588E-2,-1.098551787E-3,1.207492799E-1
3.984965052E0,-2.504367940E-2,-1.098551787E-3,1.196840182E-1
3.986969584E0,-2.291315235E-2,-7.490132935E-3,1.207492799E-1
3.988974115E0,-1.758683473E-2,-1.281645056E-2,1.228798106E-1
3.990978646E0,-1.439104415E-2,-1.814276725E-2,1.260755956E-1
3.992983177E0,-1.332578063E-2,-1.388171408E-2,1.239450797E-1
3.994987709E0,-1.226051711E-2,-2.240382135E-2,1.228798106E-1
3.996992240E0,-1.439104415E-2,-2.666487545E-2,1.250103414E-1
3.998996771E0,-1.332578063E-2,-2.666487545E-2,1.207492799E-1
4.001001302E0,-1.332578063E-2,-2.879540250E-2,1.186187565E-1
4.003005834E0,-1.119525358E-2,-3.305645660E-2,1.207492799E-1
4.005010365E0,-1.439104415E-2,-3.199119493E-2,1.111619100E-1
4.007014896E0,-1.119525358E-2,-3.305645660E-2,1.132924408E-1
4.009019427E0,-6.934199482E-3,-3.625224903E-2,1.090313867E-1
4.011023959E0,-6.934199482E-3,-3.092592955E-2,1.090313867E-1
4.013028490E0,-3.738408908E-3,-3.092592955E-2,1.100966483E-1
4.015033021E0,-4.803672433E-3,-2.453434840E-2,1.079661250E-1
4.017037552E0,4.783699289E-3,-1.920803264E-2,1.069008559E-1
4.019042084E0,1.117528044E-2,-8.555396460E-3,1.037050635E-1
4.021046615E0,7.979489863E-3,-1.098551787E-3,1.069008559E-1
4.023051146E0,1.756686158E-2,1.274987403E-2,1.058355942E-1
4.025055677E0,2.182791568E-2,2.659830451E-2,1.069008559E-1
4.027060209E0,3.354581445E-2,5.003409833E-2,1.079661250E-1
4.029064740E0,4.313318431E-2,6.601305306E-2,1.111619100E-1
4.031069271E0,5.272055417E-2,9.051411599E-2,1.132924408E-1
4.033073802E0,6.763423979E-2,1.118193865E-1,1.154229641E-1
4.035078334E0,7.509108633E-2,1.373856962E-1,1.207492799E-1
4.037082865E0,8.893951774E-2,1.597562283E-1,1.271408647E-1
4.039087396E0,9.746162593E-2,1.895835996E-1,1.260755956E-1
4.041091927E0,1.059837341E-1,2.183457166E-1,1.356629729E-1
4.043096459E0,1.102447808E-1,2.428468019E-1,1.441850811E-1
4.045100938E0,1.134405732E-1,2.705436647E-1,1.527071893E-1
4.047105417E0,1.134405732E-1,2.971752584E-1,1.612292975E-1
