"Time (s)","Acceleration x (m/s^2)","Acceleration y (m/s^2)","Acceleration z (m/s^2)"
0.000000000E0,6.927686930E-2,6.655118942E0,7.007198334E0
2.000782000E-3,5.011304095E-2,6.664700985E0,7.016780376E0
4.002188000E-3,3.094921261E-2,6.674282551E0,7.007198334E0
6.004323000E-3,6.994426250E-3,6.693446636E0,6.992825508E0
8.007240000E-3,-1.696036011E-2,6.698237419E0,7.002407551E0
1.001041700E-2,-4.091514647E-2,6.693446636E0,7.011989594E0
1.201359400E-2,-6.966088712E-2,6.707819462E0,7.016780376E0
1.401770900E-2,-7.445184886E-2,6.693446636E0,7.021571159E0
1.602182300E-2,-8.882471919E-2,6.693446636E0,7.035944462E0
1.802687500E-2,-9.840662777E-2,6.679073811E0,7.050317287E0
2.003281300E-2,-9.840662777E-2,6.698237419E0,7.045526028E0
2.203953200E-2,-1.223614067E-1,6.674282551E0,7.059898853E0
2.404692700E-2,-9.840662777E-2,6.679073811E0,7.059898853E0
2.605484400E-2,-1.079885364E-1,6.674282551E0,7.074271679E0
2.806312500E-2,-1.127794981E-1,6.659909725E0,7.103017807E0
3.007161500E-2,-1.415252388E-1,6.645536900E0,7.107808590E0
3.208010400E-2,-1.367342919E-1,6.631164074E0,7.117390633E0
3.408588600E-2,-1.558981091E-1,6.612000465E0,7.126972198E0
3.609041700E-2,-1.654800326E-1,6.588045597E0,7.141345501E0
3.809494800E-2,-1.702709794E-1,6.583254337E0,7.131763458E0
4.009947900E-2,-1.702709794E-1,6.592836380E0,7.136554241E0
4.210401100E-2,-1.606890708E-1,6.592836380E0,7.146136284E0
4.410854200E-2,-1.558981091E-1,6.602418423E0,7.165299892E0
4.611307300E-2,-1.558981091E-1,6.602418423E0,7.150927067E0
4.811760400E-2,-1.319433302E-1,6.607209206E0,7.160509109E0
5.012213600E-2,-1.463162005E-1,6.597627640E0,7.174881935E0
5.212666700E-2,-1.319433302E-1,6.616791248E0,7.170091152E0
5.413119800E-2,-1.367342919E-1,6.588045597E0,7.179672718E0
5.613572900E-2,-1.271523684E-1,6.583254337E0,7.179672718E0
5.814026100E-2,-1.319433302E-1,6.564090729E0,7.155718327E0
6.014479200E-2,-1.271523684E-1,6.559299946E0,7.170091152E0
6.214932300E-2,-1.319433302E-1,6.544927120E0,7.150927067E0
6.415385400E-2,-1.367342919E-1,6.525763035E0,7.170091152E0
6.615838600E-2,-1.415252388E-1,6.511390209E0,7.174881935E0
6.816291700E-2,-1.175704598E-1,6.530553818E0,7.179672718E0
7.016744800E-2,-1.127794981E-1,6.506599426E0,7.170091152E0
7.217197900E-2,-8.882471919E-2,6.511390209E0,7.170091152E0
7.417651100E-2,-7.924279571E-2,6.516180992E0,7.160509109E0
7.618104200E-2,-8.403375745E-2,6.492226601E0,7.170091152E0
7.818557300E-2,-4.091514647E-2,6.520972252E0,7.160509109E0
8.019010400E-2,-4.570610076E-2,6.516180992E0,7.150927067E0
8.219463600E-2,-3.612418473E-2,6.540135860E0,7.146136284E0
8.419916700E-2,-3.133323044E-2,6.535345078E0,7.117390633E0
8.620369800E-2,-7.378444076E-3,6.535345078E0,7.088644981E0
8.820822900E-2,2.203471959E-3,6.559299946E0,7.079062939E0
9.021276100E-2,1.657634228E-2,6.564090729E0,7.093435764E0
9.221729200E-2,3.574017063E-2,6.568881512E0,7.107808590E0
9.422182300E-2,3.574017063E-2,6.564090729E0,7.107808590E0
9.622635400E-2,4.053112864E-2,6.559299946E0,7.122181416E0
9.823088600E-2,5.490399897E-2,6.559299946E0,7.141345501E0
1.002354170E-1,3.574017063E-2,6.554508686E0,7.160509109E0
1.022399480E-1,6.927686930E-2,6.554508686E0,7.126972198E0
1.042444790E-1,7.406783104E-2,6.559299946E0,7.160509109E0
1.062490110E-1,8.364973962E-2,6.544927120E0,7.189254761E0
1.082535420E-1,9.323165566E-2,6.544927120E0,7.174881935E0
1.102580730E-1,1.123954803E-1,6.511390209E0,7.213209629E0
1.122626040E-1,1.123954803E-1,6.525763035E0,7.208418846E0
1.142671360E-1,1.028135717E-1,6.516180992E0,7.198836803E0
1.162716670E-1,9.802260995E-2,6.497017384E0,7.203627586E0
1.182761980E-1,9.323165566E-2,6.520972252E0,7.203627586E0
1.202807290E-1,9.323165566E-2,6.511390209E0,7.213209629E0
1.222852610E-1,7.885878533E-2,6.520972252E0,7.222791672E0
1.242897920E-1,6.448591501E-2,6.525763035E0,7.241955280E0
1.262943230E-1,8.844070137E-2,6.530553818E0,7.241955280E0
1.282988540E-1,8.364973962E-2,6.535345078E0,7.246746540E0
1.303033860E-1,7.885878533E-2,6.554508686E0,7.241955280E0
1.323079170E-1,8.364973962E-2,6.544927120E0,7.246746540E0
1.343124480E-1,9.802260995E-2,6.540135860E0,7.241955280E0
1.363169790E-1,1.028135717E-1,6.564090729E0,7.237164497E0
1.383215110E-1,9.802260995E-2,6.583254337E0,7.256328106E0
1.403260420E-1,1.076045260E-1,6.559299946E0,7.251537323E0
1.423305730E-1,9.323165566E-2,6.559299946E0,7.246746540E0
1.443351040E-1,9.802260995E-2,6.578463554E0,7.261119366E0
1.463396360E-1,1.076045260E-1,6.578463554E0,7.275492191E0
1.483441670E-1,1.123954803E-1,6.568881512E0,7.256328106E0
1.503486980E-1,1.076045260E-1,6.588045597E0,7.270700932E0
1.523532290E-1,9.802260995E-2,6.592836380E0,7.256328106E0
1.543577610E-1,7.406783104E-2,6.597627640E0,7.270700932E0
1.563622920E-1,9.323165566E-2,6.602418423E0,7.265910149E0
1.583668230E-1,9.323165566E-2,6.612000465E0,7.285074234E0
1.603713540E-1,1.028135717E-1,6.631164074E0,7.294655800E0
1.623758860E-1,7.885878533E-2,6.631164074E0,7.280282974E0
1.643804170E-1,9.323165566E-2,6.635954857E0,7.294655800E0
1.663849480E-1,8.364973962E-2,6.645536900E0,7.294655800E0
1.683894790E-1,9.323165566E-2,6.650328159E0,7.309028625E0
1.703940110E-1,6.448591501E-2,6.645536900E0,7.309028625E0
1.723985420E-1,7.885878533E-2,6.669491768E0,7.309028625E0
1.744030730E-1,4.532208294E-2,6.645536900E0,7.304237843E0
1.764076040E-1,4.053112864E-2,6.645536900E0,7.328192711E0
1.784121360E-1,5.011304095E-2,6.640746117E0,7.313819885E0
1.804166670E-1,4.053112864E-2,6.635954857E0,7.323401451E0
1.824211980E-1,2.615825646E-2,6.616791248E0,7.332983494E0
1.844257290E-1,1.657634228E-2,6.612000465E0,7.332983494E0
1.864302610E-1,1.657634228E-2,6.607209206E0,7.332983494E0
1.884347920E-1,-7.378444076E-3,6.592836380E0,7.328192711E0
1.904393230E-1,-2.175131440E-2,6.573672771E0,7.347356319E0
1.924438540E-1,-3.133323044E-2,6.583254337E0,7.332983494E0
1.944483860E-1,-3.133323044E-2,6.559299946E0,7.332983494E0
1.964529170E-1,-1.216939837E-2,6.559299946E0,7.332983494E0
1.984574480E-1,-3.133323044E-2,6.564090729E0,7.328192711E0
2.004619790E-1,-3.133323044E-2,6.568881512E0,7.337774754E0
2.024665110E-1,-1.696036011E-2,6.568881512E0,7.309028625E0
2.044710420E-1,-3.133323044E-2,6.578463554E0,7.309028625E0
2.064755730E-1,-5.528801680E-2,6.583254337E0,7.328192711E0
2.084801040E-1,-4.091514647E-2,6.559299946E0,7.318610668E0
2.104846360E-1,-3.612418473E-2,6.564090729E0,7.318610668E0
2.124891670E-1,-3.612418473E-2,6.549717903E0,7.328192711E0
2.144936980E-1,-3.612418473E-2,6.554508686E0,7.323401451E0
2.164982290E-1,-5.528801680E-2,6.535345078E0,7.323401451E0
2.185027610E-1,-7.445184886E-2,6.525763035E0,7.294655800E0
2.205072920E-1,-8.403375745E-2,6.535345078E0,7.285074234E0
2.225118230E-1,-9.361566603E-2,6.511390209E0,7.285074234E0
2.245163540E-1,-9.840662777E-2,6.511390209E0,7.265910149E0
2.265208860E-1,-9.840662777E-2,6.492226601E0,7.275492191E0
2.285254170E-1,-1.031975895E-1,6.497017384E0,7.270700932E0
2.305299480E-1,-7.924279571E-2,6.492226601E0,7.265910149E0
2.325344790E-1,-7.445184886E-2,6.497017384E0,7.280282974E0
2.345390110E-1,-5.528801680E-2,6.506599426E0,7.289865017E0
2.365435420E-1,-4.091514647E-2,6.501808167E0,7.275492191E0
2.385480730E-1,-3.612418473E-2,6.511390209E0,7.270700932E0
2.405526040E-1,-2.654226869E-2,6.492226601E0,7.270700932E0
2.425571360E-1,2.203471959E-3,6.516180992E0,7.251537323E0
2.445616670E-1,2.136730030E-2,6.535345078E0,7.251537323E0
2.465661980E-1,1.657634228E-2,6.525763035E0,7.251537323E0
2.485707290E-1,3.094921261E-2,6.535345078E0,7.251537323E0
2.505752610E-1,4.532208294E-2,6.540135860E0,7.256328106E0
2.525797920E-1,6.927686930E-2,6.554508686E0,7.261119366E0
2.545843230E-1,6.927686930E-2,6.544927120E0,7.241955280E0
2.565888540E-1,9.323165566E-2,6.544927120E0,7.232373714E0
2.585933860E-1,9.323165566E-2,6.549717903E0,7.256328106E0
2.605979170E-1,9.323165566E-2,6.530553818E0,7.232373714E0
2.626024480E-1,1.076045260E-1,6.549717903E0,7.213209629E0
2.646069790E-1,7.885878533E-2,6.549717903E0,7.246746540E0
2.666115110E-1,9.323165566E-2,6.525763035E0,7.232373714E0
2.686160420E-1,7.406783104E-2,6.530553818E0,7.232373714E0
2.706205730E-1,9.802260995E-2,6.520972252E0,7.218000412E0
2.726251040E-1,9.323165566E-2,6.511390209E0,7.227582455E0
2.746296360E-1,9.323165566E-2,6.520972252E0,7.241955280E0
2.766341670E-1,8.844070137E-2,6.511390209E0,7.232373714E0
2.786386980E-1,1.076045260E-1,6.525763035E0,7.246746540E0
2.806432290E-1,1.171864420E-1,6.516180992E0,7.246746540E0
2.826477610E-1,1.267683506E-1,6.516180992E0,7.261119366E0
2.846522920E-1,1.267683506E-1,6.487435341E0,7.241955280E0
2.866568230E-1,1.363502741E-1,6.482644558E0,7.222791672E0
2.886613540E-1,1.219773963E-1,6.458689690E0,7.218000412E0
2.906658860E-1,1.219773963E-1,6.453898907E0,7.222791672E0
2.926704170E-1,8.364973962E-2,6.463480473E0,7.218000412E0
2.946749480E-1,8.844070137E-2,6.425152779E0,7.222791672E0
2.966794790E-1,5.969495699E-2,6.410779953E0,7.241955280E0
2.986840110E-1,5.011304095E-2,6.405989170E0,7.246746540E0
3.006885420E-1,5.011304095E-2,6.410779953E0,7.246746540E0
3.026930730E-1,5.011304095E-2,6.405989170E0,7.232373714E0
3.046976040E-1,5.490399897E-2,6.415571213E0,7.213209629E0
3.067021360E-1,5.490399897E-2,6.420361996E0,7.218000412E0
3.087066670E-1,4.053112864E-2,6.415571213E0,7.208418846E0
3.107111980E-1,3.094921261E-2,6.420361996E0,7.189254761E0
3.127157290E-1,3.094921261E-2,6.420361996E0,7.174881935E0
3.147202610E-1,1.178538427E-2,6.444316864E0,7.165299892E0
3.167247920E-1,2.136730030E-2,6.453898907E0,7.155718327E0
3.187293230E-1,2.615825646E-2,6.468271732E0,7.136554241E0
3.207338540E-1,3.574017063E-2,6.473062515E0,7.141345501E0
3.227383860E-1,4.532208294E-2,6.477853298E0,7.126972198E0
3.247429170E-1,4.053112864E-2,6.487435341E0,7.112599373E0
3.267474480E-1,5.490399897E-2,6.497017384E0,7.136554241E0
3.287519790E-1,4.532208294E-2,6.511390209E0,7.146136284E0
3.307565110E-1,5.969495699E-2,6.511390209E0,7.136554241E0
3.327610420E-1,4.532208294E-2,6.506599426E0,7.146136284E0
3.347655730E-1,4.053112864E-2,6.506599426E0,7.146136284E0
3.367701040E-1,5.969495699E-2,6.540135860E0,7.122181416E0
3.387746360E-1,4.532208294E-2,6.549717903E0,7.126972198E0
3.407791670E-1,4.053112864E-2,6.540135860E0,7.122181416E0
3.427836980E-1,1.657634228E-2,6.530553818E0,7.136554241E0
3.447882290E-1,-2.587486058E-3,6.535345078E0,7.146136284E0
3.467927610E-1,-3.612418473E-2,6.530553818E0,7.131763458E0
3.487972920E-1,-7.445184886E-2,6.506599426E0,7.170091152E0
3.508018230E-1,-7.445184886E-2,6.497017384E0,7.179672718E0
3.528063540E-1,-1.031975895E-1,6.482644558E0,7.170091152E0
3.548108860E-1,-1.319433302E-1,6.487435341E0,7.155718327E0
3.568154170E-1,-1.558981091E-1,6.463480473E0,7.160509109E0
3.588199480E-1,-1.702709794E-1,6.449107647E0,7.146136284E0
3.608244790E-1,-1.702709794E-1,6.449107647E0,7.150927067E0
3.628290110E-1,-1.942257732E-1,6.458689690E0,7.150927067E0
3.648335420E-1,-2.133895904E-1,6.434734821E0,7.136554241E0
3.668380730E-1,-2.229715139E-1,6.410779953E0,7.150927067E0
3.688426040E-1,-2.421353310E-1,6.415571213E0,7.160509109E0
3.708471360E-1,-2.756720185E-1,6.396407127E0,7.184463978E0
3.728516670E-1,-2.612991929E-1,6.382034302E0,7.189254761E0
3.748561980E-1,-2.900449038E-1,6.372452259E0,7.184463978E0
3.768607290E-1,-3.139997125E-1,6.338915825E0,7.213209629E0
3.788652610E-1,-3.187906742E-1,6.334124565E0,7.203627586E0
3.808697920E-1,-3.475363851E-1,6.329333782E0,7.241955280E0
3.828743230E-1,-3.475363851E-1,6.271842480E0,7.275492191E0
3.848788540E-1,-3.858640790E-1,6.267051220E0,7.203627586E0
3.868833860E-1,-4.002369046E-1,6.243096828E0,7.194046021E0
3.888879170E-1,-4.289826751E-1,6.233514786E0,7.198836803E0
3.908924480E-1,-4.529374838E-1,6.223932743E0,7.222791672E0
3.928969790E-1,-4.721012712E-1,6.199977875E0,7.232373714E0
3.949015110E-1,-4.768922329E-1,6.195187092E0,7.227582455E0
3.969060420E-1,-4.912651181E-1,6.180814266E0,7.222791672E0
3.989105730E-1,-4.912651181E-1,6.142486572E0,7.227582455E0
4.009151040E-1,-4.768922329E-1,6.137695312E0,7.237164497E0
4.029196360E-1,-4.912651181E-1,6.128113747E0,7.256328106E0
4.049241670E-1,-5.152199268E-1,6.118531704E0,7.246746540E0
4.069286980E-1,-5.200108886E-1,6.104158878E0,7.237164497E0
4.089332290E-1,-5.295927525E-1,6.089786053E0,7.323401451E0
4.109377610E-1,-5.391746759E-1,6.137695312E0,7.452757359E0
4.129422920E-1,-4.768922329E-1,6.094576836E0,7.984553814E0
4.149468230E-1,-4.816831946E-1,6.032294273E0,7.011989594E0
4.169513540E-1,-4.768922329E-1,6.094576836E0,7.031153202E0
4.189558860E-1,-4.768922329E-1,6.084994793E0,7.031153202E0
4.209604170E-1,-4.673103094E-1,6.118531704E0,7.112599373E0
4.229649480E-1,-4.433555603E-1,6.132904530E0,7.251537323E0
4.249694790E-1,-1.079885364E-1,6.396407127E0,7.687514305E0
4.269740110E-1,-2.804629803E-1,6.257469654E0,8.238473892E0
4.289785420E-1,-3.954459429E-1,6.051458359E0,7.328192711E0
4.309830730E-1,-3.523273468E-1,5.989175797E0,7.313819885E0
4.329876040E-1,-3.762821555E-1,5.859819889E0,7.366520405E0
4.349921360E-1,-3.571183085E-1,5.797537804E0,7.280282974E0
4.369966670E-1,-3.092087507E-1,5.735255241E0,7.376101971E0
4.390011980E-1,-2.996268272E-1,5.677763462E0,7.404848099E0
4.410057290E-1,-3.092087507E-1,5.653809071E0,7.347356319E0
4.430102610E-1,-3.331634998E-1,5.644227028E0,7.280282974E0
4.450147920E-1,-3.379544616E-1,5.653809071E0,7.208418846E0
4.470193230E-1,-3.427454233E-1,5.682554722E0,7.107808590E0
4.490238540E-1,-3.379544616E-1,5.744837284E0,7.093435764E0
4.510283860E-1,-3.379544616E-1,5.749628067E0,7.107808590E0
4.530329170E-1,-3.092087507E-1,5.749628067E0,7.136554241E0
4.550374480E-1,-2.852539420E-1,5.740046024E0,7.141345501E0
4.570419790E-1,-2.708810568E-1,5.740046024E0,7.237164497E0
4.590465110E-1,-2.804629803E-1,5.730463982E0,7.376101971E0
4.610510420E-1,-2.948358655E-1,5.720882416E0,7.471921444E0
4.630555730E-1,-3.379544616E-1,5.672972679E0,7.471921444E0
4.650601040E-1,-3.667002320E-1,5.687345505E0,7.400056839E0
4.670646360E-1,-4.098188281E-1,5.744837284E0,7.011989594E0
4.690691670E-1,-4.289826751E-1,5.807119370E0,6.710159302E0
4.710736980E-1,-4.289826751E-1,5.912520409E0,6.599967003E0
4.730782290E-1,-4.337736368E-1,6.065831184E0,6.614339828E0
4.750827610E-1,-3.762821555E-1,6.094576836E0,6.695786476E0
4.770872920E-1,-4.241917133E-1,6.252678394E0,6.825141907E0
4.790918230E-1,-5.056380033E-1,6.391616344E0,6.940124989E0
4.810963540E-1,-5.391746759E-1,6.458689690E0,7.170091152E0
4.831008860E-1,-6.445757747E-1,6.434734821E0,7.586904526E0
4.851054170E-1,-6.876943707E-1,6.449107647E0,7.313819885E0
4.871099480E-1,-7.978863716E-1,6.520972252E0,6.820351124E0
4.891144790E-1,-1.056598067E0,6.621582031E0,6.350837231E0
4.911190110E-1,-9.847337008E-1,6.760519981E0,6.484984398E0
4.931235420E-1,-1.003897548E0,6.837175369E0,6.393956184E0
4.951280730E-1,-6.733214855E-1,6.942576408E0,7.069480896E0
4.971326040E-1,-6.541576385E-1,7.038395405E0,8.113909721E0
4.991371360E-1,-5.391746759E-1,7.091095924E0,8.353457451E0
5.011416670E-1,-5.535475612E-1,7.139005661E0,7.309028625E0
5.031461980E-1,-3.619092703E-1,7.637265205E0,7.304237843E0
5.051507290E-1,-2.565082312E-1,7.886394978E0,8.305547714E0
5.071552610E-1,-3.954459429E-1,7.819321632E0,7.222791672E0
5.091597920E-1,-5.200108886E-1,7.766621113E0,6.427492619E0
5.111643230E-1,-7.308129668E-1,7.752248287E0,6.096916676E0
5.131688540E-1,-7.212310433E-1,7.900767803E0,5.761549473E0
5.151733860E-1,-5.918751955E-1,8.015750885E0,5.057279110E0
5.171779170E-1,-5.200108886E-1,7.963050365E0,4.635674953E0
5.191824480E-1,-4.002369046E-1,7.967841148E0,4.242815971E0
5.211869790E-1,-1.702709794E-1,7.967841148E0,3.998477459E0
5.231915110E-1,2.136730030E-2,8.001378059E0,3.826003075E0
5.251960420E-1,1.986327171E-1,7.958259106E0,3.936194897E0
5.272005730E-1,3.327795267E-1,7.895977020E0,4.194906712E0
5.292051040E-1,4.525534511E-1,7.766621113E0,4.530273914E0
5.312096360E-1,5.100449324E-1,7.666010857E0,4.856058598E0
5.332141670E-1,5.196268559E-1,7.498327255E0,5.191425800E0
5.352186980E-1,5.052539706E-1,7.311480045E0,5.526792526E0
5.372232290E-1,4.860901237E-1,7.119841576E0,5.809459209E0
5.392278130E-1,3.854800463E-1,6.942576408E0,6.072961807E0
5.412323960E-1,2.800789773E-1,6.774892807E0,6.259809017E0
5.432369790E-1,1.794688851E-1,6.607209206E0,6.374792099E0
5.452415630E-1,6.927686930E-2,6.477853298E0,6.432283878E0
5.472461460E-1,-5.049705505E-2,6.353288651E0,6.470611095E0
5.492507290E-1,-1.271523684E-1,6.257469654E0,6.499357224E0
5.512553130E-1,-2.085986286E-1,6.171232224E0,6.489775181E0
5.532598960E-1,-2.756720185E-1,6.108949661E0,6.489775181E0
5.552644790E-1,-3.235816360E-1,6.080204010E0,6.465820312E0
5.572690630E-1,-3.810731173E-1,6.027503490E0,6.475402355E0
5.592736460E-1,-3.906549811E-1,6.017921448E0,6.480193138E0
5.612782290E-1,-3.954459429E-1,6.008339882E0,6.465820312E0
5.632828130E-1,-4.002369046E-1,6.013130665E0,6.465820312E0
5.652873960E-1,-3.858640790E-1,5.998757839E0,6.456238270E0
5.672919790E-1,-3.858640790E-1,6.022712708E0,6.427492619E0
5.692965630E-1,-3.858640790E-1,6.056249142E0,6.384374142E0
5.713011460E-1,-3.667002320E-1,6.089786053E0,6.350837231E0
5.733057290E-1,-3.523273468E-1,6.099368095E0,6.312509537E0
5.753103130E-1,-3.235816360E-1,6.089786053E0,6.250227451E0
5.773148960E-1,-3.139997125E-1,6.084994793E0,6.221481323E0
5.793194790E-1,-2.612991929E-1,6.080204010E0,6.173572063E0
5.813240630E-1,-2.277624756E-1,6.065831184E0,6.154407978E0
5.833286460E-1,-2.325534374E-1,6.056249142E0,6.096916676E0
5.853332290E-1,-2.085986286E-1,6.027503490E0,6.068171024E0
5.873378130E-1,-1.942257732E-1,5.998757839E0,6.053798199E0
5.893423960E-1,-1.798529029E-1,5.955639362E0,6.025052071E0
5.913469790E-1,-1.511071622E-1,5.917311668E0,6.049006939E0
5.933515110E-1,-1.271523684E-1,5.878983974E0,6.039425373E0
5.953560420E-1,-1.319433302E-1,5.869401932E0,6.068171024E0
5.973605730E-1,-1.558981091E-1,5.816701412E0,6.068171024E0
5.993651040E-1,-1.798529029E-1,5.797537804E0,6.058588982E0
6.013696360E-1,-1.750619411E-1,5.764000893E0,6.077752590E0
6.033741670E-1,-2.181805521E-1,5.783164501E0,6.087334633E0
6.053786980E-1,-2.277624756E-1,5.773582935E0,6.096916676E0
6.073832290E-1,-2.181805521E-1,5.778373718E0,6.125662327E0
6.093877610E-1,-2.325534374E-1,5.792746544E0,6.159199238E0
6.113922920E-1,-2.325534374E-1,5.816701412E0,6.144826412E0
6.133968230E-1,-2.373443693E-1,5.859819889E0,6.149617195E0
6.154013540E-1,-2.277624756E-1,5.883774757E0,6.163990021E0
6.174058860E-1,-2.277624756E-1,5.922102451E0,6.178362846E0
6.194104170E-1,-2.085986286E-1,5.970012188E0,6.197526932E0
6.214149480E-1,-1.702709794E-1,6.027503490E0,6.187944889E0
6.234194790E-1,-1.798529029E-1,6.089786053E0,6.197526932E0
6.254240110E-1,-1.750619411E-1,6.132904530E0,6.192735672E0
6.274285420E-1,-1.702709794E-1,6.247887611E0,6.192735672E0
6.294330730E-1,-1.367342919E-1,6.286215305E0,6.192735672E0
6.314376040E-1,-1.031975895E-1,6.343706608E0,6.221481323E0
6.334421360E-1,-6.966088712E-2,6.420361996E0,6.197526932E0
6.354466670E-1,-2.175131440E-2,6.468271732E0,6.187944889E0
6.374511980E-1,3.574017063E-2,6.525763035E0,6.173572063E0
6.394557290E-1,7.406783104E-2,6.592836380E0,6.178362846E0
6.414602610E-1,1.555140913E-1,6.631164074E0,6.140035152E0
6.434647920E-1,2.321694046E-1,6.650328159E0,6.140035152E0
6.454693230E-1,2.752880454E-1,6.703028679E0,6.135244370E0
6.474738540E-1,3.375704885E-1,6.736565113E0,6.106498718E0
6.494783860E-1,3.758981228E-1,6.750937939E0,6.029843330E0
6.514829170E-1,4.621353745E-1,6.731774330E0,6.034634113E0
6.534874480E-1,5.148358941E-1,6.736565113E0,6.101707458E0
6.554919790E-1,6.106550097E-1,6.750937939E0,6.111289501E0
6.574965110E-1,7.160560489E-1,6.717401505E0,6.111289501E0
6.595010420E-1,7.495927811E-1,6.726983070E0,6.063379765E0
6.615055730E-1,8.406209350E-1,6.693446636E0,6.029843330E0
6.635101040E-1,9.316491485E-1,6.650328159E0,6.058588982E0
6.655146360E-1,9.891406298E-1,6.588045597E0,6.034634113E0
6.675191670E-1,1.041841149E0,6.520972252E0,6.010679245E0
6.695236980E-1,1.065795898E0,6.468271732E0,5.957978725E0
6.715282290E-1,1.056213975E0,6.401198387E0,5.905278206E0
6.735327610E-1,9.843496680E-1,6.300588131E0,5.694476128E0
6.755372920E-1,1.118496418E0,6.223932743E0,5.632194042E0
6.775418230E-1,1.171196938E0,6.199977875E0,5.751967907E0
6.795463540E-1,1.180778861E0,6.166441441E0,5.747176647E0
6.815508860E-1,1.396371961E0,6.128113747E0,5.847786903E0
6.835554170E-1,1.496982098E0,6.099368095E0,5.900487423E0
6.855599480E-1,1.568846464E0,6.056249142E0,5.895696640E0
6.875644790E-1,1.602383137E0,5.984385014E0,5.847786903E0
6.895690110E-1,1.607174039E0,5.960430145E0,5.756758690E0
6.915735420E-1,1.611965060E0,5.926893234E0,5.670521259E0
6.935780730E-1,1.635919809E0,5.917311668E0,5.627402782E0
6.955826040E-1,1.645501733E0,5.902938843E0,5.584284306E0
6.975871360E-1,1.664665580E0,5.907729626E0,5.526792526E0
6.995916670E-1,1.655083656E0,5.931684494E0,5.507628918E0
7.015961980E-1,1.645501733E0,5.922102451E0,5.411809921E0
7.036007290E-1,1.693411350E0,5.917311668E0,5.368690968E0
7.056052610E-1,1.731738925E0,5.946057320E0,5.349527359E0
7.076097920E-1,1.712575078E0,6.008339882E0,5.258499146E0
7.096143230E-1,1.741320848E0,6.008339882E0,5.153098106E0
7.116188540E-1,1.784439445E0,6.051458359E0,5.133934498E0
7.136233860E-1,1.803603292E0,6.094576836E0,5.095606804E0
7.156279170E-1,1.789230466E0,6.142486572E0,4.942296028E0
7.176324480E-1,1.856303811E0,6.185605049E0,4.817730904E0
7.196369790E-1,1.880258679E0,6.267051220E0,4.836894989E0
7.216415110E-1,1.966495872E0,6.353288651E0,4.908759117E0
7.236460420E-1,1.995241642E0,6.497017384E0,4.880013466E0
7.256505730E-1,2.028778315E0,6.597627640E0,4.841685772E0
7.276551040E-1,1.980868697E0,6.679073811E0,4.717121124E0
7.296596360E-1,2.033569336E0,6.760519981E0,4.606928825E0
7.316641670E-1,2.100642681E0,6.861130238E0,4.654838562E0
7.336686980E-1,2.162925005E0,7.000067711E0,4.736284733E0
7.356732290E-1,2.239580393E0,7.143796444E0,4.721911907E0
7.376777610E-1,2.321026802E0,7.239615440E0,4.621301651E0
7.396822920E-1,2.364145279E0,7.287525177E0,4.415290833E0
7.416868230E-1,2.311444759E0,7.455208778E0,4.444036484E0
7.436913540E-1,2.407263994E0,7.536654949E0,4.295516968E0
7.456958860E-1,2.622857094E0,7.622892380E0,4.453618526E0
7.477004170E-1,2.790540457E0,7.752248287E0,4.535064697E0
7.497049480E-1,2.871986866E0,7.838485241E0,4.487154961E0
7.517094790E-1,2.982178688E0,7.915140629E0,4.434454441E0
7.537140110E-1,3.044461250E0,8.034914017E0,4.329053402E0
7.557185420E-1,3.121116638E0,8.073242188E0,4.261980057E0
7.577230730E-1,3.192980766E0,8.197807312E0,4.209279537E0
7.597276040E-1,3.245681286E0,8.293625832E0,4.075132847E0
7.617321360E-1,3.312754869E0,8.307998657E0,4.008059025E0
7.637366670E-1,3.346291542E0,8.322372437E0,3.936194897E0
7.657411980E-1,3.355873346E0,8.312789917E0,3.826003075E0
7.677457290E-1,3.389410019E0,8.384654045E0,3.701438189E0
7.697502610E-1,3.442110538E0,8.427773476E0,3.739765882E0
7.717547920E-1,3.480438232E0,8.470891953E0,3.758929491E0
7.737593230E-1,3.523556948E0,8.518801689E0,3.605618954E0
7.757638540E-1,3.499602079E0,8.566710472E0,3.342116356E0
7.777683860E-1,3.571466446E0,8.595456123E0,3.217551470E0
7.797729170E-1,3.600212336E0,8.700857162E0,3.251088142E0
7.817774480E-1,3.648121834E0,8.763139725E0,3.207969427E0
7.837819790E-1,3.686449528E0,8.825422287E0,3.155268908E0
7.857865110E-1,3.600212336E0,8.916450500E0,2.982794523E0
7.877910420E-1,3.652912855E0,8.954778671E0,2.949257851E0
7.897955730E-1,3.796641350E0,8.993105888E0,3.011540174E0
7.918001040E-1,3.911624432E0,9.060179710E0,3.193596601E0
7.938046360E-1,4.007443905E0,9.160789490E0,3.169641972E0
7.958091670E-1,4.060143948E0,9.285354614E0,3.112150431E0
7.978136980E-1,4.060143948E0,9.414710045E0,3.021122217E0
7.998182290E-1,4.141590595E0,9.510529518E0,2.944466829E0
8.018227610E-1,4.189499855E0,9.663840294E0,2.886975288E0
8.038272920E-1,4.227827549E0,9.826732635E0,2.810320139E0
8.058318230E-1,4.314064980E0,9.956088066E0,2.781574249E0
8.078363540E-1,4.304482937E0,1.007107162E1,2.642636538E0
8.098408860E-1,4.294900894E0,1.021479988E1,2.609099865E0
8.118454170E-1,4.314064980E0,1.033936501E1,2.551608324E0
8.138499480E-1,4.390720367E0,1.045913887E1,2.484534979E0
8.158544790E-1,4.395511150E0,1.052621269E1,2.484534979E0
8.178590110E-1,4.438629627E0,1.057891273E1,2.508489847E0
8.198635420E-1,4.438629627E0,1.065077686E1,2.417461634E0
8.218680730E-1,4.520075798E0,1.073222351E1,2.383924961E0
8.238726040E-1,4.548821926E0,1.081366920E1,2.508489847E0
8.258771360E-1,4.601522446E0,1.092865276E1,2.580354214E0
8.278816670E-1,4.582358360E0,1.093823433E1,2.680964231E0
8.298861980E-1,4.529657841E0,1.095739841E1,2.623472691E0
8.318907290E-1,4.476957321E0,1.083283329E1,2.422252655E0
8.338952610E-1,4.500912189E0,1.086157894E1,2.575563192E0
8.358997920E-1,4.429047585E0,1.091907024E1,2.690546274E0
8.379043230E-1,4.405093193E0,1.101009846E1,2.786365271E0
8.399088540E-1,4.347601414E0,1.110112667E1,2.762410402E0
8.419133860E-1,4.328437805E0,1.111549950E1,2.834274769E0
8.439179170E-1,4.443420887E0,1.099093533E1,2.982794523E0
8.459224480E-1,4.539239883E0,1.082325172E1,3.184014797E0
8.479269790E-1,4.591940403E0,1.067952251E1,3.140896082E0
8.499315110E-1,4.558403492E0,1.060286713E1,3.092986584E0
8.519360420E-1,4.539239883E0,1.048788452E1,3.112150431E0
8.539405730E-1,4.496121407E0,1.039685631E1,3.236715317E0
8.559451040E-1,4.376347065E0,1.033936501E1,3.231924295E0
8.579496360E-1,4.309273720E0,1.027708244E1,3.116941452E0
8.599541670E-1,4.237409592E0,1.018126297E1,2.982794523E0
8.619586980E-1,4.227827549E0,1.007107162E1,2.939676046E0
8.639632290E-1,4.170336246E0,9.980043411E0,2.877393484E0
8.659677610E-1,4.160754204E0,9.855478287E0,2.949257851E0
8.679722920E-1,4.112844467E0,9.783614159E0,2.925302982E0
8.699768230E-1,4.079308033E0,9.730913162E0,2.920512199E0
8.719813540E-1,4.036189556E0,9.759658813E0,2.743246794E0
8.739858860E-1,3.969115973E0,9.759658813E0,2.618681908E0
8.759904170E-1,3.978697777E0,9.730913162E0,2.594727039E0
8.779949480E-1,3.993070602E0,9.659049034E0,2.589936018E0
8.799994790E-1,4.012234688E0,9.639884949E0,2.522862673E0
8.820040110E-1,3.983488798E0,9.625512123E0,2.441416502E0
8.840085420E-1,3.978697777E0,9.659049034E0,2.460580111E0
8.860130730E-1,3.935579300E0,9.697376251E0,2.494117022E0
8.880176040E-1,3.925997257E0,9.730913162E0,2.431834459E0
8.900221360E-1,3.916415453E0,9.740495682E0,2.431834459E0
8.920266670E-1,3.916415453E0,9.769241333E0,2.388715982E0
8.940311980E-1,3.921206236E0,9.769241333E0,2.398297787E0
8.960357290E-1,3.911624432E0,9.793195724E0,2.331224442E0
8.980402610E-1,3.906833410E0,9.869851112E0,2.292896748E0
9.000447920E-1,3.844551086E0,9.869851112E0,2.268941879E0
9.020493230E-1,3.811014414E0,9.879432678E0,2.211450338E0
9.040538540E-1,3.772686720E0,9.922552109E0,2.197077513E0
9.060583860E-1,3.772686720E0,9.951297760E0,2.163540840E0
9.080629170E-1,3.719986200E0,1.003274345E1,2.120422125E0
9.100674480E-1,3.734359026E0,1.006628036E1,2.125213146E0
9.120719790E-1,3.710404158E0,1.008544445E1,2.115631342E0
9.140765110E-1,3.719986200E0,1.005669880E1,2.096467495E0
9.160810420E-1,3.715195179E0,1.011898041E1,2.101258278E0
9.180855730E-1,3.652912855E0,1.010939884E1,2.139585972E0
9.200901040E-1,3.657703638E0,1.012377167E1,2.096467495E0
9.220946360E-1,3.619375944E0,1.016689014E1,2.077303648E0
9.240991670E-1,3.581048489E0,1.019084549E1,2.053348780E0
9.261036980E-1,3.528347969E0,1.018126297E1,2.000648260E0
9.281082290E-1,3.485229254E0,1.020521832E1,1.971902609E0
9.301127610E-1,3.480438232E0,1.019084549E1,1.976693511E0
9.321172920E-1,3.403783083E0,1.017647266E1,1.914411068E0
9.341218230E-1,3.370246172E0,1.017647266E1,1.818591952E0
9.361263540E-1,3.269636154E0,1.023875523E1,1.650908470E0
9.381308860E-1,3.245681286E0,1.015251732E1,1.780264378E0
9.401354170E-1,3.226517677E0,1.013335419E1,1.780264378E0
9.421399480E-1,3.221726656E0,1.011898041E1,1.823382974E0
9.441444790E-1,3.135489464E0,1.010939884E1,1.737145662E0
9.461490110E-1,3.145071268E0,1.006628036E1,1.727563739E0
9.481535420E-1,3.058834076E0,1.004711628E1,1.689236164E0
9.501580730E-1,2.982178688E0,1.000878906E1,1.655699492E0
9.521626040E-1,2.886359692E0,9.994416237E0,1.641326547E0
9.541671360E-1,2.828868151E0,9.970460892E0,1.588626027E0
9.561716670E-1,2.780958652E0,9.951297760E0,1.444897294E0
9.581761980E-1,2.766585588E0,9.912969589E0,1.425733447E0
9.601807290E-1,2.761794806E0,9.850687027E0,1.440106392E0
9.621852610E-1,2.785749435E0,9.845896721E0,1.459270239E0
9.641897920E-1,2.790540457E0,9.879432678E0,1.401778698E0
9.661943230E-1,2.761794806E0,9.889015198E0,1.282004833E0
9.681988540E-1,2.718676090E0,9.879432678E0,1.301168561E0
9.702033860E-1,2.680348396E0,9.889015198E0,1.258049965E0
9.722079170E-1,2.642020702E0,9.826732635E0,1.262840986E0
9.742124480E-1,2.598902225E0,9.807568550E0,1.248468041E0
9.762169790E-1,2.589320183E0,9.764450073E0,1.262840986E0
9.782215110E-1,2.546201706E0,9.797986984E0,1.238886118E0
9.802260420E-1,2.603693247E0,9.788404465E0,1.267631888E0
9.822305730E-1,2.555783510E0,9.821941376E0,1.262840986E0
9.842351040E-1,2.440800667E0,9.860269547E0,1.219722271E0
9.862396360E-1,2.383309126E0,9.860269547E0,1.181394696E0
9.882441670E-1,2.392890930E0,9.912969589E0,1.167021751E0
9.902486980E-1,2.416845798E0,9.980043411E0,1.167021751E0
9.922532290E-1,2.354563475E0,9.999206543E0,1.171812773E0
9.942577610E-1,2.321026802E0,1.005190754E1,1.085575461E0
9.962622920E-1,2.306653738E0,1.011419010E1,1.085575461E0
9.982668230E-1,2.249162436E0,1.023875523E1,1.061620712E0
1.000271354E0,2.225207567E0,1.025791836E1,9.705924988E-1
1.002275886E0,2.119806528E0,1.028187370E1,9.035190940E-1
1.004280417E0,2.086269855E0,1.028666401E1,7.406265736E-1
1.006284948E0,2.196461916E0,1.034894657E1,7.693722844E-1
1.008289479E0,2.158134222E0,1.047351170E1,7.310446501E-1
1.010294011E0,2.229998589E0,1.056933117E1,9.035190940E-1
1.012298542E0,2.239580393E0,1.064119530E1,1.052038789E0
1.014303073E0,2.273117065E0,1.068431377E1,1.090366483E0
1.016307604E0,2.249162436E0,1.074659634E1,9.993382692E-1
1.018312136E0,2.210834742E0,1.080408764E1,8.795643449E-1
1.020316667E0,2.182088852E0,1.088074303E1,7.693722844E-1
1.022321198E0,2.115015507E0,1.095260715E1,7.214627862E-1
1.024325729E0,2.110224485E0,1.098135281E1,6.879260540E-1
1.026330261E0,2.057523966E0,1.102447224E1,6.208526492E-1
1.028334792E0,2.028778315E0,1.108196354E1,5.202425718E-1
1.030339323E0,2.062314987E0,1.109633636E1,4.675420523E-1
1.032343854E0,2.167716026E0,1.117299175E1,4.867058396E-1
1.034348386E0,2.167716026E0,1.118257332E1,4.867058396E-1
1.036352917E0,2.095851660E0,1.118257332E1,4.340053201E-1
1.038357448E0,2.095851660E0,1.116340923E1,3.813048005E-1
1.040361979E0,2.172507048E0,1.115382767E1,3.669319153E-1
1.042366511E0,2.210834742E0,1.112029076E1,3.908867240E-1
1.044371042E0,2.172507048E0,1.111070919E1,3.860957623E-1
1.046375573E0,2.158134222E0,1.111070919E1,3.908867240E-1
1.048380104E0,2.153343201E0,1.104842663E1,3.333952427E-1
1.050384636E0,2.071897030E0,1.101968098E1,4.435872436E-1
1.052389167E0,2.081478834E0,1.098614407E1,4.914968014E-1
1.054393698E0,2.033569336E0,1.095739841E1,5.202425718E-1
1.056398229E0,1.956913948E0,1.093823433E1,5.106606483E-1
1.058402761E0,1.923377275E0,1.087116146E1,5.154516101E-1
1.060407344E0,1.861094832E0,1.081846046E1,4.867058396E-1
1.062411927E0,1.803603292E0,1.074659634E1,4.867058396E-1
1.064416511E0,1.803603292E0,1.070826817E1,5.346154571E-1
1.066421094E0,1.731738925E0,1.065077686E1,5.825250149E-1
1.068425677E0,1.717366099E0,1.064598656E1,6.495984197E-1
1.070430261E0,1.650292635E0,1.064598656E1,6.975079775E-1
1.072434844E0,1.645501733E0,1.057891273E1,6.016888022E-1
1.074439427E0,1.659874558E0,1.056453991E1,5.633611679E-1
1.076444011E0,1.631128907E0,1.057891273E1,5.537792444E-1
1.078448594E0,1.611965060E0,1.056933117E1,5.585702062E-1
1.080453177E0,1.626337886E0,1.055974865E1,6.591803432E-1
1.082457761E0,1.568846464E0,1.056453991E1,6.639712453E-1
1.084462344E0,1.616755962E0,1.059328556E1,6.879260540E-1
1.086466927E0,1.635919809E0,1.060765839E1,7.262536883E-1
1.088471511E0,1.621546984E0,1.060765839E1,7.502084970E-1
1.090476094E0,1.597592115E0,1.059807682E1,7.645813823E-1
1.092480677E0,1.626337886E0,1.058370399E1,7.454175353E-1
1.094485261E0,1.616755962E0,1.055974865E1,6.831350923E-1
1.096489844E0,1.583219290E0,1.052142143E1,6.735531688E-1
1.098494427E0,1.583219290E0,1.048309326E1,6.783441305E-1
1.100499011E0,1.578428388E0,1.046393013E1,7.118808627E-1
1.102503594E0,1.530518770E0,1.041602039E1,7.070899010E-1
1.104508177E0,1.535309672E0,1.042081165E1,7.454175353E-1
1.106512761E0,1.540100694E0,1.038727474E1,7.597904205E-1
1.108517344E0,1.540100694E0,1.037769222E1,7.933270931E-1
1.110521927E0,1.516145945E0,1.034415627E1,7.166718245E-1
1.112526511E0,1.578428388E0,1.033457375E1,7.406265736E-1
1.114531094E0,1.564055443E0,1.032020092E1,7.837451696E-1
1.116535625E0,1.525727868E0,1.030103683E1,8.220728636E-1
1.118540157E0,1.487400174E0,1.027229118E1,8.604004979E-1
1.120544688E0,1.439490557E0,1.028187370E1,8.699824214E-1
1.122549219E0,1.439490557E0,1.026270962E1,9.466377497E-1
1.124553750E0,1.353253365E0,1.027708244E1,9.562196136E-1
1.126558282E0,1.319716692E0,1.026750088E1,9.178919792E-1
1.128562813E0,1.281388998E0,1.025312805E1,9.514287114E-1
1.130567344E0,1.267016172E0,1.024354553E1,9.466377497E-1
1.132571875E0,1.219106555E0,1.023875523E1,9.466377497E-1
1.134576407E0,1.271807075E0,1.024354553E1,1.008920193E0
1.136580938E0,1.219106555E0,1.027708244E1,1.023293018E0
1.138585469E0,1.175987959E0,1.032499218E1,1.047247887E0
1.140590000E0,1.219106555E0,1.039206505E1,1.071202636E0
1.142594532E0,1.142451286E0,1.041122913E1,1.066411734E0
1.144599063E0,1.084959745E0,1.043518448E1,1.042456865E0
1.146603594E0,9.987225533E-1,1.049746609E1,1.071202636E0
1.148608125E0,9.412310719E-1,1.053100300E1,1.032874942E0
1.150612657E0,9.364401102E-1,1.055016708E1,1.066411734E0
1.152617188E0,9.364401102E-1,1.061244965E1,1.133485079E0
1.154621719E0,9.220672250E-1,1.067952251E1,1.190976620E0
1.156626250E0,8.645757437E-1,1.071305943E1,1.219722271E0
1.158630782E0,8.262480497E-1,1.076096916E1,1.272422910E0
1.160635313E0,8.166661859E-1,1.080887890E1,1.305959582E0
1.162639844E0,7.543837428E-1,1.089511585E1,1.315541506E0
1.164644375E0,6.298188567E-1,1.096218967E1,1.315541506E0
1.166648907E0,5.723273754E-1,1.103405380E1,1.315541506E0
1.168653438E0,5.771182775E-1,1.110591793E1,1.353869081E0
1.170657969E0,5.100449324E-1,1.110591793E1,1.358660102E0
1.172662500E0,4.812991619E-1,1.114424610E1,1.334705353E0
1.174667032E0,4.429715276E-1,1.113945484E1,1.353869081E0
1.176671563E0,4.333896041E-1,1.116340923E1,1.392196774E0
1.178676094E0,5.100449324E-1,1.119215488E1,1.488015890E0
1.180680625E0,6.202369332E-1,1.119215488E1,1.569462180E0
1.182685157E0,5.867002010E-1,1.114424610E1,1.535925508E0
1.184689688E0,5.531635284E-1,1.105321789E1,1.464061141E0
1.186694219E0,5.962821245E-1,1.103884506E1,1.440106392E0
1.188698750E0,6.154459715E-1,1.101009846E1,1.435315371E0
1.190703282E0,6.394007206E-1,1.097656250E1,1.406569719E0
1.192707813E0,6.298188567E-1,1.091427994E1,1.444897294E0
1.194712344E0,6.154459715E-1,1.083283329E1,1.440106392E0
1.196716875E0,6.154459715E-1,1.078013325E1,1.488015890E0
1.198721407E0,6.441916823E-1,1.067473221E1,1.507179737E0
1.200725938E0,6.873103380E-1,1.056933117E1,1.555089355E0
1.202730469E0,6.681464911E-1,1.046393013E1,1.574253201E0
1.204735000E0,7.016831636E-1,1.035373783E1,1.602998853E0
1.206739532E0,6.729374528E-1,1.021000862E1,1.636535645E0
1.208744063E0,6.346098185E-1,1.010939884E1,1.684445143E0
1.210748594E0,6.489826441E-1,9.975252151E0,1.746727586E0
1.212753125E0,6.058640480E-1,9.850687027E0,1.761100531E0
1.214757657E0,5.627454519E-1,9.711749077E0,1.780264378E0
1.216762188E0,5.196268559E-1,9.639884949E0,1.861710548E0
1.218766719E0,5.196268559E-1,9.510529518E0,1.933574915E0
1.220771250E0,5.004630089E-1,9.395545959E0,1.981484532E0
1.222775782E0,4.765082002E-1,9.285354614E0,2.015021086E0
1.224780313E0,4.477624893E-1,9.184743881E0,2.072512627E0
1.226784844E0,4.381805658E-1,9.117671013E0,2.120422125E0
1.228789375E0,4.429715276E-1,9.021851540E0,2.206659555E0
1.230793907E0,4.333896041E-1,8.959568977E0,2.230614185E0
1.232798438E0,4.238076806E-1,8.916450500E0,2.297687769E0
1.234802969E0,3.758981228E-1,8.882913589E0,2.326433420E0
1.236807500E0,3.471523523E-1,8.878123283E0,2.398297787E0
1.238812032E0,3.136156797E-1,8.854167938E0,2.407879591E0
1.240816563E0,2.704970837E-1,8.911659241E0,2.383924961E0
1.242821094E0,2.369603664E-1,8.954778671E0,2.388715982E0
1.244825625E0,2.513332367E-1,8.930823326E0,2.431834459E0
1.246830157E0,2.800789773E-1,8.849377632E0,2.427043438E0
1.248834688E0,2.848699391E-1,8.820631981E0,2.374342918E0
1.250835625E0,3.040337563E-1,8.777512550E0,2.331224442E0
1.252836563E0,2.944518328E-1,8.758349419E0,2.307269573E0
1.254837917E0,3.088247180E-1,8.739185333E0,2.326433420E0
1.256839792E0,3.231976032E-1,8.734394073E0,2.345597267E0
1.258842292E0,2.992427945E-1,8.767930984E0,2.345597267E0
1.260845469E0,3.136156797E-1,8.777512550E0,2.369552135E0
1.262849323E0,3.088247180E-1,8.796676636E0,2.379133940E0
1.264853854E0,2.704970837E-1,8.863750458E0,2.393506765E0
1.266859063E0,2.657061219E-1,8.873332024E0,2.374342918E0
1.268864896E0,2.465422899E-1,8.935614586E0,2.403088808E0
1.270871250E0,2.034236640E-1,8.973941803E0,2.336015224E0
1.272878073E0,1.938417554E-1,8.993105888E0,2.316851616E0
1.274885261E0,1.315593123E-1,9.031434059E0,2.278523922E0
1.276892657E0,1.315593123E-1,9.060179710E0,2.264151096E0
1.278900157E0,7.885878533E-2,9.122462273E0,2.244987011E0
1.280907657E0,5.969495699E-2,9.122462273E0,2.201868534E0
1.282912188E0,1.363502741E-1,9.141625404E0,2.221032381E0
1.284916719E0,8.844070137E-2,9.117671013E0,2.182704687E0
1.286921250E0,4.532208294E-2,9.103298187E0,2.120422125E0
1.288925782E0,1.123954803E-1,9.136835098E0,2.120422125E0
1.290930313E0,1.123954803E-1,9.117671013E0,2.120422125E0
1.292934844E0,8.844070137E-2,9.132043839E0,2.067721605E0
1.294939375E0,1.178538427E-2,9.151207924E0,2.000648260E0
1.296943907E0,2.203471959E-3,9.155998230E0,1.981484532E0
1.298948438E0,1.178538427E-2,9.136835098E0,1.957529783E0
1.300952969E0,7.406783104E-2,9.146416664E0,1.947947860E0
1.302957500E0,8.364973962E-2,9.122462273E0,1.991066456E0
1.304962032E0,7.406783104E-2,9.122462273E0,1.943156838E0
1.306966563E0,5.490399897E-2,9.155998230E0,1.923992991E0
1.308971094E0,5.490399897E-2,9.151207924E0,1.928784013E0
1.310975625E0,9.323165566E-2,9.132043839E0,1.900038242E0
1.312980157E0,1.123954803E-1,9.132043839E0,1.900038242E0
1.314984688E0,9.323165566E-2,9.141625404E0,1.914411068E0
1.316989219E0,1.123954803E-1,9.141625404E0,1.904829144E0
1.318993750E0,1.171864420E-1,9.127252579E0,1.914411068E0
1.320998282E0,1.123954803E-1,9.108088493E0,1.923992991E0
1.323002813E0,8.364973962E-2,9.079342842E0,1.890456319E0
1.325007344E0,4.053112864E-2,9.079342842E0,1.895247340E0
1.327011875E0,5.490399897E-2,9.064970016E0,1.909620166E0
1.329016407E0,2.136730030E-2,9.055388451E0,1.880874395E0
1.331020938E0,-2.175131440E-2,9.036224365E0,1.871292472E0
1.333025469E0,6.994426250E-3,9.017060280E0,1.900038242E0
1.335030000E0,2.615825646E-2,9.012269974E0,1.904829144E0
1.337034532E0,1.178538427E-2,9.007478714E0,1.919202089E0
1.339039063E0,1.178538427E-2,9.007478714E0,1.909620166E0
1.341043594E0,-2.654226869E-2,9.031434059E0,1.909620166E0
1.343048125E0,-6.007897109E-2,9.045806885E0,1.904829144E0
1.345052657E0,-3.612418473E-2,9.002687454E0,1.900038242E0
1.347057188E0,-2.654226869E-2,8.964360237E0,1.876083493E0
1.349061719E0,-1.696036011E-2,8.949987411E0,1.919202089E0
1.351066250E0,-5.049705505E-2,8.969151497E0,1.904829144E0
1.353070782E0,-4.091514647E-2,8.954778671E0,1.933574915E0
1.355075313E0,-2.175131440E-2,8.969151497E0,1.947947860E0
1.357079844E0,-5.528801680E-2,9.031434059E0,1.976693511E0
1.359084375E0,-6.007897109E-2,8.978733063E0,1.938365936E0
1.361088907E0,-5.049705505E-2,8.973941803E0,1.971902609E0
1.363093438E0,-1.216939837E-2,8.978733063E0,2.005439281E0
1.365097969E0,-1.696036011E-2,8.954778671E0,2.010230303E0
1.367102500E0,1.178538427E-2,8.964360237E0,2.058139801E0
1.369107032E0,-7.378444076E-3,8.978733063E0,2.086885452E0
1.371111563E0,-2.175131440E-2,8.964360237E0,2.058139801E0
1.373116094E0,-3.612418473E-2,8.993105888E0,2.096467495E0
1.375120625E0,-6.966088712E-2,9.021851540E0,2.086885452E0
1.377125157E0,-9.361566603E-2,9.050597191E0,2.077303648E0
1.379129688E0,-1.750619411E-1,9.050597191E0,2.062930822E0
1.381134219E0,-1.271523684E-1,9.060179710E0,2.082094669E0
1.383138750E0,-1.175704598E-1,9.112879753E0,2.134795189E0
1.385143282E0,-1.367342919E-1,9.122462273E0,2.130004168E0
1.387147813E0,-1.127794981E-1,9.093715668E0,2.139585972E0
1.389152344E0,-1.079885364E-1,9.108088493E0,2.153958797E0
1.391156875E0,-8.882471919E-2,9.136835098E0,2.125213146E0
1.393161407E0,-1.319433302E-1,9.146416664E0,2.130004168E0
1.395165938E0,-1.894348115E-1,9.160789490E0,2.096467495E0
1.397170469E0,-1.798529029E-1,9.189535141E0,2.130004168E0
1.399175000E0,-1.846438497E-1,9.184743881E0,2.153958797E0
1.401179532E0,-1.750619411E-1,9.184743881E0,2.163540840E0
1.403184063E0,-1.798529029E-1,9.218280792E0,2.192286491E0
1.405188594E0,-1.415252388E-1,9.256608963E0,2.197077513E0
1.407193125E0,-1.223614067E-1,9.290144920E0,2.211450338E0
1.409197657E0,-9.840662777E-2,9.352427483E0,2.240196228E0
1.411202188E0,-8.882471919E-2,9.395545959E0,2.225823164E0
1.413206719E0,-9.840662777E-2,9.405128479E0,2.197077513E0
1.415211250E0,-1.319433302E-1,9.390755653E0,2.201868534E0
1.417215782E0,-1.846438497E-1,9.424292564E0,2.182704687E0
1.419220313E0,-1.846438497E-1,9.424292564E0,2.182704687E0
1.421224844E0,-2.565082312E-1,9.472201347E0,2.187495708E0
1.423229375E0,-3.187906742E-1,9.457828522E0,2.149168015E0
1.425233907E0,-3.762821555E-1,9.486574173E0,2.130004168E0
1.427238438E0,-4.241917133E-1,9.500946999E0,2.153958797E0
1.429242969E0,-4.577284455E-1,9.568020821E0,2.173122644E0
1.431247500E0,-4.529374838E-1,9.630303383E0,2.206659555E0
1.433252032E0,-4.768922329E-1,9.687794685E0,2.225823164E0
1.435256563E0,-5.008470416E-1,9.697376251E0,2.249778032E0
1.437261094E0,-5.535475612E-1,9.716540337E0,2.264151096E0
1.439265625E0,-6.014571190E-1,9.754868507E0,2.244987011E0
1.441270157E0,-6.110390425E-1,9.769241333E0,2.244987011E0
1.443274688E0,-6.829034090E-1,9.831523895E0,2.268941879E0
1.445279219E0,-7.260220051E-1,9.903388023E0,2.264151096E0
1.447283750E0,-7.930954099E-1,9.956088066E0,2.259360075E0
1.449288282E0,-8.697507381E-1,9.960879326E0,2.264151096E0
1.451292813E0,-9.559879303E-1,9.984833717E0,2.292896748E0
1.453297344E0,-1.114089489E0,1.000399780E1,2.221032381E0
1.455301875E0,-1.185953856E0,1.001837063E1,2.273732901E0
1.457306407E0,-1.185953856E0,1.003753471E1,2.441416502E0
1.459310938E0,-1.195535779E0,1.006148911E1,2.556399345E0
1.461315469E0,-1.214699626E0,1.007586193E1,2.666591406E0
1.463320000E0,-1.310518742E0,1.008065319E1,2.671382427E0
1.465324532E0,-1.387174129E0,1.005669880E1,2.733664751E0
1.467329063E0,-1.516529918E0,1.004232597E1,2.776783466E0
1.469333594E0,-1.612349033E0,1.005190754E1,2.800738096E0
1.471338125E0,-1.684213400E0,1.006148911E1,2.848647833E0
1.473342657E0,-1.775241613E0,1.005190754E1,2.877393484E0
1.475347188E0,-1.866269827E0,1.002316189E1,2.920512199E0
1.477351719E0,-1.971670866E0,1.001357937E1,2.968421698E0
1.479356250E0,-2.077071905E0,9.994416237E0,2.997167349E0
1.481360782E0,-2.134563446E0,9.975252151E0,3.049867868E0
1.483365313E0,-2.220800638E0,9.965670586E0,3.088195562E0
1.485369844E0,-2.311828852E0,9.975252151E0,3.140896082E0
1.487374375E0,-2.398066044E0,9.956088066E0,3.179223776E0
1.489378907E0,-2.489094257E0,9.951297760E0,3.212760448E0
1.491383438E0,-2.551376581E0,9.936924934E0,3.251088142E0
1.493387969E0,-2.656777620E0,9.936924934E0,3.308579683E0
1.495392500E0,-2.723851204E0,9.927342415E0,3.361280203E0
1.497397032E0,-2.800506353E0,9.936924934E0,3.399607897E0
1.499401563E0,-2.925071239E0,9.951297760E0,3.471472263E0
1.501406094E0,-2.987353802E0,9.946506500E0,3.461890221E0
1.503410625E0,-3.049636126E0,9.908178329E0,3.471472263E0
1.505415157E0,-3.097545862E0,9.884223938E0,3.461890221E0
1.507419688E0,-3.188574076E0,9.912969589E0,3.505008936E0
1.509424219E0,-3.255647421E0,9.922552109E0,3.576873302E0
1.511428750E0,-3.337093592E0,9.941715240E0,3.677483320E0
1.513433282E0,-3.418540001E0,9.951297760E0,3.744556665E0
1.515437813E0,-3.499986172E0,9.999206543E0,3.797257185E0
1.517442344E0,-3.624551058E0,1.001837063E1,3.840375900E0
1.519446875E0,-3.710788250E0,1.003274345E1,3.859539747E0
1.521451407E0,-3.777861595E0,1.008065319E1,3.912240267E0
1.523455938E0,-3.816189289E0,1.011419010E1,3.917031288E0
1.525460469E0,-3.868889809E0,1.012856293E1,3.940985918E0
1.527465000E0,-3.921590328E0,1.012856293E1,3.917031288E0
1.529469532E0,-3.974290848E0,1.013814449E1,3.912240267E0
1.531474063E0,-4.031782627E0,1.016209984E1,3.912240267E0
1.533478594E0,-4.055737019E0,1.018605423E1,3.907449245E0
1.535483125E0,-4.046155453E0,1.020521832E1,3.926613092E0
1.537487657E0,-4.046155453E0,1.021000862E1,3.912240267E0
1.539492188E0,-4.089273930E0,1.021479988E1,3.869121552E0
1.541496719E0,-4.050946236E0,1.020521832E1,3.878703594E0
1.543501250E0,-4.074901104E0,1.021959114E1,3.845166922E0
1.545505782E0,-4.065319061E0,1.022438240E1,3.826003075E0
1.547510313E0,-4.079691887E0,1.021000862E1,3.749347687E0
1.549514844E0,-4.084483147E0,1.020042706E1,3.730183840E0
1.551519375E0,-4.007827759E0,1.019084549E1,3.706228971E0
1.553523907E0,-3.979082108E0,1.018605423E1,3.691856146E0
1.555528438E0,-3.955127239E0,1.016209984E1,3.634364605E0
1.557532969E0,-3.902426481E0,1.015251732E1,3.624782801E0
1.559537500E0,-3.864099026E0,1.013335419E1,3.548127413E0
1.561542032E0,-3.840144157E0,1.010460758E1,3.466681242E0
1.563546563E0,-3.811398268E0,1.006148911E1,3.409189701E0
1.565551094E0,-3.777861595E0,1.000878906E1,3.375653028E0
1.567555625E0,-3.715579271E0,9.965670586E0,3.289415836E0
1.569560157E0,-3.643714905E0,9.956088066E0,3.207969427E0
1.571564688E0,-3.610178232E0,9.917760849E0,3.155268908E0
1.573569219E0,-3.562268734E0,9.860269547E0,3.069031715E0
1.575573750E0,-3.504777193E0,9.826732635E0,3.025913239E0
1.577578282E0,-3.432912827E0,9.802777290E0,2.958839655E0
1.579582813E0,-3.351466417E0,9.769241333E0,2.882184505E0
1.581587344E0,-3.250856400E0,9.735704422E0,2.843856812E0
1.583591875E0,-3.183783054E0,9.702167511E0,2.805529118E0
1.585596407E0,-3.097545862E0,9.668630600E0,2.762410402E0
1.587600938E0,-3.044845343E0,9.644676208E0,2.728873730E0
1.589605469E0,-2.972980976E0,9.620721817E0,2.695337057E0
1.591610000E0,-2.867579937E0,9.572812080E0,2.700128078E0
1.593614532E0,-2.824461222E0,9.553647995E0,2.676173210E0
1.595619063E0,-2.771760702E0,9.515319824E0,2.637845755E0
1.597623594E0,-2.680732489E0,9.467411041E0,2.604308844E0
1.599628125E0,-2.608868122E0,9.443455696E0,2.594727039E0
1.601632657E0,-2.517839909E0,9.405128479E0,2.570772171E0
1.603637188E0,-2.441184759E0,9.395545959E0,2.570772171E0
1.605641719E0,-2.345365524E0,9.352427483E0,2.551608324E0
1.607646250E0,-2.268710136E0,9.318890572E0,2.527653694E0
1.609650782E0,-2.225591660E0,9.323681831E0,2.513280869E0
1.611655313E0,-2.163309097E0,9.304517746E0,2.498907804E0
1.613659844E0,-2.105817556E0,9.275772095E0,2.479743958E0
1.615664375E0,-2.053117037E0,9.247026443E0,2.460580111E0
1.617668907E0,-2.000416517E0,9.223072052E0,2.417461634E0
1.619673438E0,-1.942925096E0,9.199116707E0,2.383924961E0
1.621677969E0,-1.904597521E0,9.194326401E0,2.388715982E0
1.623682500E0,-1.780032635E0,9.175162315E0,2.388715982E0
1.625687032E0,-1.665049553E0,9.184743881E0,2.398297787E0
1.627691563E0,-1.569230437E0,9.184743881E0,2.393506765E0
1.629696094E0,-1.473411322E0,9.179953575E0,2.374342918E0
1.631700625E0,-1.411128879E0,9.165580750E0,2.403088808E0
1.633705157E0,-1.344055533E0,9.175162315E0,2.374342918E0
1.635709688E0,-1.267400146E0,9.155998230E0,2.345597267E0
1.637714219E0,-1.248236299E0,9.160789490E0,2.369552135E0
1.639718750E0,-1.200326800E0,9.179953575E0,2.355179071E0
1.641723282E0,-1.233863473E0,9.175162315E0,2.345597267E0
1.643727813E0,-1.085343838E0,9.227863312E0,2.359970093E0
1.645732344E0,-9.847337008E-1,9.218280792E0,2.403088808E0
1.647736875E0,-8.937055469E-1,9.223072052E0,2.383924961E0
1.649741407E0,-8.074682951E-1,9.223072052E0,2.379133940E0
1.651745938E0,-7.260220051E-1,9.227863312E0,2.417461634E0
1.653750469E0,-6.158300042E-1,9.218280792E0,2.374342918E0
1.655755000E0,-5.679204464E-1,9.194326401E0,2.321642399E0
1.657759532E0,-4.768922329E-1,9.179953575E0,2.331224442E0
1.659764063E0,-4.050278664E-1,9.179953575E0,2.355179071E0
1.661768594E0,-3.714911938E-1,9.170371056E0,2.345597267E0
1.663773125E0,-3.283725977E-1,9.189535141E0,2.331224442E0
1.665777657E0,-2.612991929E-1,9.194326401E0,2.340806246E0
1.667782188E0,-2.038076967E-1,9.189535141E0,2.326433420E0
1.669786719E0,-1.175704598E-1,9.179953575E0,2.336015224E0
1.671791250E0,-3.612418473E-2,9.170371056E0,2.355179071E0
1.673795782E0,-4.091514647E-2,9.146416664E0,2.288105726E0
1.675800313E0,3.094921261E-2,9.175162315E0,2.307269573E0
1.677804844E0,1.363502741E-1,9.179953575E0,2.331224442E0
1.679809375E0,2.752880454E-1,9.203907967E0,2.345597267E0
1.681813907E0,3.279885650E-1,9.184743881E0,2.369552135E0
1.683818438E0,4.094347954E-1,9.194326401E0,2.403088808E0
1.685822969E0,4.333896041E-1,9.189535141E0,2.364761114E0
1.687827500E0,4.765082002E-1,9.213489532E0,2.403088808E0
1.689832032E0,5.244178176E-1,9.199116707E0,2.379133940E0
1.691836615E0,5.771182775E-1,9.189535141E0,2.350388288E0
1.693841198E0,6.298188567E-1,9.218280792E0,2.393506765E0
1.695845782E0,7.352198958E-1,9.227863312E0,2.355179071E0
1.697850365E0,7.352198958E-1,9.218280792E0,2.359970093E0
1.699854948E0,7.400108576E-1,9.223072052E0,2.331224442E0
1.701859532E0,8.262480497E-1,9.213489532E0,2.326433420E0
1.703864115E0,8.981124163E-1,9.208699226E0,2.355179071E0
1.705868698E0,8.789486289E-1,9.232653618E0,2.359970093E0
1.707873282E0,8.549938202E-1,9.227863312E0,2.316851616E0
1.709877865E0,9.172762632E-1,9.223072052E0,2.359970093E0
1.711882448E0,8.981124163E-1,9.247026443E0,2.369552135E0
1.713887032E0,8.502028584E-1,9.223072052E0,2.336015224E0
1.715891615E0,8.454118967E-1,9.208699226E0,2.340806246E0
1.717896198E0,9.029033780E-1,9.194326401E0,2.359970093E0
1.719900782E0,9.939315915E-1,9.194326401E0,2.446207285E0
1.721905365E0,1.008304477E0,9.208699226E0,2.465371132E0
1.723909948E0,1.046632171E0,9.223072052E0,2.489326000E0
1.725914532E0,1.051423073E0,9.242236137E0,2.470162153E0
1.727919115E0,1.037050247E0,9.266190529E0,2.479743958E0
1.729923698E0,1.003513575E0,9.304517746E0,2.508489847E0
1.731928282E0,1.027468324E0,9.290144920E0,2.532444477E0
1.733932865E0,1.013095379E0,9.309309006E0,2.556399345E0
1.735937448E0,9.939315915E-1,9.304517746E0,2.580354214E0
1.737942032E0,9.364401102E-1,9.294936180E0,2.575563192E0
1.739946615E0,8.933214545E-1,9.323681831E0,2.604308844E0
1.741951198E0,8.693667054E-1,9.342845917E0,2.633054733E0
1.743955782E0,8.166661859E-1,9.376382828E0,2.633054733E0
1.745960365E0,7.927113771E-1,9.376382828E0,2.647427559E0
1.747964896E0,7.639656067E-1,9.362010002E0,2.695337057E0
1.749969427E0,7.064741254E-1,9.357218742E0,2.704919100E0
1.751973959E0,7.400108576E-1,9.362010002E0,2.738455772E0
1.753978490E0,7.400108576E-1,9.357218742E0,2.762410402E0
1.755983021E0,7.160560489E-1,9.328473091E0,2.752828598E0
1.757987552E0,6.921012998E-1,9.299727440E0,2.776783466E0
1.759992084E0,6.777284145E-1,9.285354614E0,2.800738096E0
1.761996615E0,6.729374528E-1,9.261399269E0,2.829483986E0
1.764001146E0,6.441916823E-1,9.232653618E0,2.805529118E0
1.766005677E0,6.010730863E-1,9.213489532E0,2.824692965E0
1.768010209E0,5.962821245E-1,9.208699226E0,2.819901943E0
1.770014740E0,5.675364137E-1,9.184743881E0,2.824692965E0
1.772019271E0,5.435816050E-1,9.170371056E0,2.815111160E0
1.774023802E0,5.100449324E-1,9.146416664E0,2.819901943E0
1.776028334E0,4.908810854E-1,9.122462273E0,2.810320139E0
1.778032865E0,4.669263363E-1,9.098506927E0,2.800738096E0
1.780037396E0,4.333896041E-1,9.093715668E0,2.781574249E0
1.782041927E0,4.525534511E-1,9.103298187E0,2.776783466E0
1.784046459E0,4.238076806E-1,9.079342842E0,2.752828598E0
1.786050990E0,4.190167189E-1,9.074552536E0,2.748037577E0
1.788055521E0,4.046438932E-1,9.060179710E0,2.733664751E0
1.790060052E0,3.950619698E-1,9.041015625E0,2.728873730E0
1.792064584E0,3.950619698E-1,9.045806885E0,2.695337057E0
1.794069115E0,3.711071610E-1,9.026642799E0,2.690546274E0
1.796073646E0,3.615252376E-1,9.017060280E0,2.666591406E0
1.798078177E0,3.471523523E-1,9.012269974E0,2.671382427E0
1.800082709E0,3.327795267E-1,9.002687454E0,2.633054733E0
1.802087240E0,3.327795267E-1,8.997897148E0,2.613890886E0
1.804091771E0,3.136156797E-1,9.002687454E0,2.585144997E0
1.806096302E0,2.848699391E-1,8.993105888E0,2.570772171E0
1.808100834E0,2.800789773E-1,8.993105888E0,2.556399345E0
1.810105365E0,2.657061219E-1,9.007478714E0,2.542026520E0
1.812109896E0,2.321694046E-1,9.017060280E0,2.494117022E0
1.814114427E0,2.130055875E-1,9.021851540E0,2.455789328E0
1.816118959E0,2.082146257E-1,9.017060280E0,2.427043438E0
1.818123490E0,2.034236640E-1,9.031434059E0,2.412670612E0
1.820128021E0,1.794688851E-1,9.036224365E0,2.369552135E0
1.822132552E0,1.650960147E-1,9.060179710E0,2.316851616E0
1.824137084E0,1.411412358E-1,9.084134102E0,2.278523922E0
1.826141615E0,1.411412358E-1,9.112879753E0,2.235405207E0
1.828146146E0,1.028135717E-1,9.122462273E0,2.192286491E0
1.830150677E0,6.927686930E-2,9.146416664E0,2.158749819E0
1.832155209E0,3.574017063E-2,9.203907967E0,2.096467495E0
1.834159740E0,3.094921261E-2,9.251817703E0,2.053348780E0
1.836164271E0,-1.216939837E-2,9.270981789E0,2.010230303E0
1.838168802E0,-4.570610076E-2,9.338054657E0,1.943156838E0
1.840173334E0,-6.966088712E-2,9.362010002E0,1.885665417E0
1.842177865E0,-1.031975895E-1,9.443455696E0,1.832964897E0
1.844182396E0,-1.367342919E-1,9.510529518E0,1.780264378E0
1.846186927E0,-1.511071622E-1,9.553647995E0,1.761100531E0
1.848191459E0,-1.798529029E-1,9.630303383E0,1.679654241E0
1.850195990E0,-1.942257732E-1,9.692585945E0,1.636535645E0
1.852200521E0,-2.373443693E-1,9.759658813E0,1.583835125E0
1.854205052E0,-2.325534374E-1,9.826732635E0,1.535925508E0
1.856209584E0,-2.469262928E-1,9.893805504E0,1.488015890E0
1.858214115E0,-2.660901546E-1,9.970460892E0,1.459270239E0
1.860218646E0,-2.517172694E-1,1.005190754E1,1.411360621E0
1.862223177E0,-2.708810568E-1,1.009981728E1,1.353869081E0
1.864227709E0,-2.852539420E-1,1.017647266E1,1.301168561E0
1.866232240E0,-2.900449038E-1,1.022438240E1,1.305959582E0
1.868236771E0,-2.708810568E-1,1.030103683E1,1.258049965E0
1.870242865E0,-2.565082312E-1,1.037769222E1,1.219722271E0
1.872246250E0,-2.325534374E-1,1.042081165E1,1.176603675E0
1.874249636E0,-2.421353310E-1,1.048788452E1,1.176603675E0
1.876253073E0,-1.894348115E-1,1.054058552E1,1.152648926E0
1.878256615E0,-2.038076967E-1,1.056933117E1,1.123903155E0
1.880260313E0,-1.702709794E-1,1.061244965E1,1.133485079E0
1.882264167E0,-1.223614067E-1,1.063161373E1,1.123903155E0
1.884268229E0,-1.031975895E-1,1.065077686E1,1.128694177E0
1.886272500E0,-9.840662777E-2,1.065077686E1,1.123903155E0
1.888276979E0,-8.403375745E-2,1.066035938E1,1.143067002E0
1.890281667E0,-1.031975895E-1,1.065077686E1,1.138275981E0
1.892286563E0,-1.511071622E-1,1.063161373E1,1.138275981E0
1.894291615E0,-1.654800326E-1,1.056453991E1,1.147857904E0
1.896296823E0,-2.181805521E-1,1.054058552E1,1.147857904E0
1.898302136E0,-2.085986286E-1,1.047351170E1,1.190976620E0
1.900307500E0,-2.565082312E-1,1.041122913E1,1.205349445E0
1.902312917E0,-2.708810568E-1,1.034415627E1,1.224513292E0
1.904318334E0,-2.852539420E-1,1.026750088E1,1.258049965E0
1.906323386E0,-2.900449038E-1,1.015251732E1,1.267631888E0
1.908327917E0,-3.283725977E-1,1.008065319E1,1.296377659E0
1.910332448E0,-3.283725977E-1,9.994416237E0,1.315541506E0
1.912336979E0,-3.379544616E-1,9.908178329E0,1.344287276E0
1.914341511E0,-3.523273468E-1,9.812359810E0,1.377823949E0
1.916346042E0,-3.714911938E-1,9.745285988E0,1.401778698E0
1.918350573E0,-3.523273468E-1,9.663840294E0,1.416151524E0
1.920355104E0,-3.762821555E-1,9.587184906E0,1.435315371E0
1.922359636E0,-3.810731173E-1,9.510529518E0,1.464061141E0
1.924364167E0,-3.714911938E-1,9.453038216E0,1.473643064E0
1.926368698E0,-4.002369046E-1,9.400337219E0,1.488015890E0
1.928373229E0,-4.146097898E-1,9.342845917E0,1.483224988E0
1.930377761E0,-4.433555603E-1,9.280563354E0,1.507179737E0
1.932382292E0,-4.385645986E-1,9.251817703E0,1.492806911E0
1.934386823E0,-4.673103094E-1,9.208699226E0,1.507179737E0
1.936391354E0,-4.816831946E-1,9.175162315E0,1.516761661E0
1.938395886E0,-4.864741564E-1,9.151207924E0,1.535925508E0
1.940400417E0,-5.056380033E-1,9.112879753E0,1.516761661E0
1.942404948E0,-5.200108886E-1,9.098506927E0,1.492806911E0
1.944409479E0,-5.487565994E-1,9.088925362E0,1.488015890E0
1.946414011E0,-5.870842934E-1,9.079342842E0,1.468852162E0
1.948418542E0,-5.679204464E-1,9.079342842E0,1.440106392E0
1.950423073E0,-5.822933316E-1,9.060179710E0,1.411360621E0
1.952427604E0,-6.062480807E-1,9.074552536E0,1.406569719E0
1.954432136E0,-6.062480807E-1,9.088925362E0,1.368242025E0
1.956436667E0,-6.541576385E-1,9.108088493E0,1.349078178E0
1.958441198E0,-6.589486003E-1,9.098506927E0,1.329914331E0
1.960445729E0,-6.924853325E-1,9.112879753E0,1.286795735E0
1.962450261E0,-6.924853325E-1,9.141625404E0,1.277213812E0
1.964454792E0,-7.260220051E-1,9.170371056E0,1.248468041E0
1.966459323E0,-7.308129668E-1,9.194326401E0,1.229304194E0
1.968463854E0,-7.547677755E-1,9.223072052E0,1.186185598E0
1.970468386E0,-7.691406608E-1,9.270981789E0,1.181394696E0
1.972472917E0,-7.883044481E-1,9.280563354E0,1.138275981E0
1.974477448E0,-7.930954099E-1,9.314100266E0,1.123903155E0
1.976481979E0,-8.218411803E-1,9.342845917E0,1.114321232E0
1.978486511E0,-8.266321421E-1,9.395545959E0,1.104739308E0
1.980491042E0,-8.266321421E-1,9.419501305E0,1.085575461E0
1.982495573E0,-8.362140059E-1,9.476992607E0,1.080784559E0
1.984500104E0,-8.314231038E-1,9.476992607E0,1.061620712E0
1.986504636E0,-8.362140059E-1,9.524902344E0,1.061620712E0
1.988509167E0,-8.410049677E-1,9.568020821E0,1.032874942E0
1.990513698E0,-8.505868912E-1,9.582393646E0,1.047247887E0
1.992518229E0,-8.457959294E-1,9.611139297E0,1.037665963E0
1.994522761E0,-8.505868912E-1,9.635094643E0,1.032874942E0
1.996527292E0,-8.601688147E-1,9.654257774E0,1.008920193E0
1.998531823E0,-8.314231038E-1,9.659049034E0,1.032874942E0
2.000536354E0,-8.314231038E-1,9.673421860E0,1.023293018E0
2.002540886E0,-8.170502186E-1,9.678213120E0,1.037665963E0
2.004545417E0,-8.122592568E-1,9.678213120E0,1.037665963E0
2.006549948E0,-7.978863716E-1,9.687794685E0,1.056829810E0
2.008554479E0,-7.787225246E-1,9.692585945E0,1.047247887E0
2.010559011E0,-7.595587373E-1,9.683003426E0,1.056829810E0
2.012563542E0,-7.403948903E-1,9.683003426E0,1.061620712E0
2.014568073E0,-7.260220051E-1,9.687794685E0,1.071202636E0
2.016572604E0,-6.972762942E-1,9.673421860E0,1.095157385E0
2.018577136E0,-6.876943707E-1,9.673421860E0,1.099948406E0
2.020581667E0,-6.541576385E-1,9.668630600E0,1.095157385E0
2.022586198E0,-6.158300042E-1,9.663840294E0,1.090366483E0
2.024590729E0,-5.918751955E-1,9.673421860E0,1.114321232E0
2.026595261E0,-5.679204464E-1,9.663840294E0,1.099948406E0
2.028599792E0,-5.439656377E-1,9.678213120E0,1.114321232E0
2.030604323E0,-5.487565994E-1,9.702167511E0,1.099948406E0
2.032608854E0,-5.152199268E-1,9.687794685E0,1.104739308E0
2.034613386E0,-4.864741564E-1,9.706958771E0,1.114321232E0
2.036617917E0,-4.433555603E-1,9.711749077E0,1.114321232E0
2.038622448E0,-4.289826751E-1,9.754868507E0,1.128694177E0
2.040626979E0,-4.002369046E-1,9.750077248E0,1.114321232E0
2.042631511E0,-3.906549811E-1,9.778822899E0,1.099948406E0
2.044636042E0,-3.619092703E-1,9.793195724E0,1.114321232E0
2.046640573E0,-3.379544616E-1,9.793195724E0,1.123903155E0
2.048645104E0,-3.044177890E-1,9.821941376E0,1.128694177E0
2.050649636E0,-2.804629803E-1,9.831523895E0,1.147857904E0
2.052654167E0,-2.756720185E-1,9.850687027E0,1.143067002E0
2.054658698E0,-2.756720185E-1,9.879432678E0,1.138275981E0
2.056663229E0,-2.804629803E-1,9.869851112E0,1.138275981E0
2.058667761E0,-2.373443693E-1,9.912969589E0,1.143067002E0
2.060672292E0,-2.133895904E-1,9.908178329E0,1.157439828E0
2.062676823E0,-2.038076967E-1,9.927342415E0,1.171812773E0
2.064681354E0,-1.846438497E-1,9.936924934E0,1.171812773E0
2.066685886E0,-1.942257732E-1,9.932133675E0,1.167021751E0
2.068690417E0,-1.606890708E-1,9.951297760E0,1.195767522E0
2.070694948E0,-1.606890708E-1,9.980043411E0,1.210140347E0
2.072699479E0,-1.415252388E-1,9.960879326E0,1.205349445E0
2.074704011E0,-1.415252388E-1,9.970460892E0,1.210140347E0
2.076708542E0,-1.463162005E-1,9.980043411E0,1.219722271E0
2.078713073E0,-1.175704598E-1,9.994416237E0,1.210140347E0
2.080717604E0,-7.445184886E-2,9.989624977E0,1.224513292E0
2.082722136E0,-4.570610076E-2,9.984833717E0,1.253259063E0
2.084726667E0,-5.528801680E-2,9.980043411E0,1.229304194E0
2.086731198E0,-2.175131440E-2,9.975252151E0,1.243677139E0
2.088735729E0,-2.175131440E-2,9.960879326E0,1.243677139E0
2.090740261E0,-7.378444076E-3,9.941715240E0,1.238886118E0
2.092744792E0,-2.587486058E-3,9.965670586E0,1.229304194E0
2.094749323E0,-2.587486058E-3,9.927342415E0,1.238886118E0
2.096753854E0,2.203471959E-3,9.922552109E0,1.224513292E0
2.098758386E0,-1.216939837E-2,9.922552109E0,1.219722271E0
2.100762917E0,2.203471959E-3,9.908178329E0,1.219722271E0
2.102767448E0,2.615825646E-2,9.869851112E0,1.229304194E0
2.104771979E0,2.203471959E-3,9.845896721E0,1.200558424E0
2.106776511E0,1.178538427E-2,9.831523895E0,1.205349445E0
2.108781042E0,4.532208294E-2,9.802777290E0,1.210140347E0
2.110787917E0,6.994426250E-3,9.764450073E0,1.190976620E0
2.112790782E0,2.136730030E-2,9.730913162E0,1.176603675E0
2.114793698E0,-2.587486058E-3,9.692585945E0,1.176603675E0
2.116796719E0,1.657634228E-2,9.663840294E0,1.186185598E0
2.118799896E0,1.178538427E-2,9.639884949E0,1.171812773E0
2.120803282E0,1.178538427E-2,9.606348038E0,1.195767522E0
2.122806927E0,2.136730030E-2,9.582393646E0,1.162230849E0
2.124810834E0,2.615825646E-2,9.553647995E0,1.171812773E0
2.126815052E0,4.053112864E-2,9.524902344E0,1.181394696E0
2.128819584E0,1.178538427E-2,9.491365433E0,1.157439828E0
2.130824375E0,-1.216939837E-2,9.457828522E0,1.157439828E0
2.132829427E0,-7.378444076E-3,9.448246956E0,1.133485079E0
2.134834688E0,2.203471959E-3,9.438665390E0,1.143067002E0
2.136840157E0,-1.216939837E-2,9.424292564E0,1.133485079E0
2.138845782E0,-2.175131440E-2,9.405128479E0,1.114321232E0
2.140851511E0,-3.133323044E-2,9.385964394E0,1.099948406E0
2.142857292E0,-3.133323044E-2,9.385964394E0,1.109530330E0
2.144863073E0,-6.007897109E-2,9.376382828E0,1.099948406E0
2.146867969E0,-6.486992538E-2,9.366800308E0,1.052038789E0
2.148872500E0,-7.445184886E-2,9.362010002E0,1.056829810E0
2.150877032E0,-8.882471919E-2,9.376382828E0,1.023293018E0
2.152881563E0,-1.031975895E-1,9.371591568E0,1.018502116E0
2.154886094E0,-1.031975895E-1,9.357218742E0,1.004129291E0
2.156890625E0,-1.031975895E-1,9.366800308E0,9.801744223E-1
2.158895157E0,-1.175704598E-1,9.362010002E0,9.705924988E-1
2.160899688E0,-1.031975895E-1,9.366800308E0,9.514287114E-1
2.162904219E0,-1.175704598E-1,9.362010002E0,9.466377497E-1
2.164908750E0,-9.361566603E-2,9.362010002E0,9.274739027E-1
2.166913282E0,-1.079885364E-1,9.376382828E0,9.178919792E-1
2.168917813E0,-8.882471919E-2,9.366800308E0,8.987281322E-1
2.170922344E0,-9.840662777E-2,9.385964394E0,9.035190940E-1
2.172926875E0,-6.007897109E-2,9.395545959E0,8.891462684E-1
2.174931407E0,-6.486992538E-2,9.390755653E0,8.843553066E-1
2.176935938E0,-6.486992538E-2,9.405128479E0,8.699824214E-1
2.178940469E0,-5.528801680E-2,9.433874130E0,8.747733831E-1
2.180945000E0,-4.570610076E-2,9.424292564E0,8.651914597E-1
2.182949532E0,-2.175131440E-2,9.453038216E0,8.460276127E-1
2.184954063E0,-1.696036011E-2,9.457828522E0,8.316547275E-1
2.186958594E0,6.994426250E-3,9.500946999E0,8.316547275E-1
2.188963125E0,6.994426250E-3,9.496156693E0,8.124909401E-1
2.190967657E0,2.203471959E-3,9.510529518E0,8.268638253E-1
2.192972188E0,4.053112864E-2,9.548856735E0,7.981180549E-1
2.194976719E0,5.969495699E-2,9.568020821E0,7.885361314E-1
2.196981250E0,8.844070137E-2,9.587184906E0,7.885361314E-1
2.198985782E0,1.028135717E-1,9.591975212E0,7.981180549E-1
2.200990313E0,1.171864420E-1,9.615930557E0,7.645813823E-1
2.202994844E0,1.507231444E-1,9.644676208E0,7.693722844E-1
2.204999375E0,1.603050530E-1,9.659049034E0,7.502084970E-1
2.207003907E0,1.890507936E-1,9.673421860E0,7.502084970E-1
2.209008438E0,1.890507936E-1,9.687794685E0,7.502084970E-1
2.211012969E0,2.273784578E-1,9.711749077E0,7.406265736E-1
2.213017500E0,2.225874960E-1,9.702167511E0,7.406265736E-1
2.215022032E0,2.369603664E-1,9.730913162E0,7.549994588E-1
2.217026563E0,2.657061219E-1,9.730913162E0,7.166718245E-1
2.219031094E0,2.657061219E-1,9.750077248E0,7.070899010E-1
2.221035625E0,2.657061219E-1,9.769241333E0,7.166718245E-1
2.223040157E0,2.657061219E-1,9.812359810E0,7.118808627E-1
2.225044688E0,2.800789773E-1,9.807568550E0,6.927170157E-1
2.227049219E0,2.944518328E-1,9.817150116E0,6.783441305E-1
2.229053750E0,2.896609008E-1,9.841105461E0,6.687622070E-1
2.231058282E0,3.040337563E-1,9.845896721E0,6.495984197E-1
2.233062813E0,2.992427945E-1,9.879432678E0,6.352255344E-1
2.235067344E0,2.896609008E-1,9.874642372E0,6.256436110E-1
2.237071875E0,2.944518328E-1,9.884223938E0,6.208526492E-1
2.239076407E0,2.896609008E-1,9.893805504E0,5.873159766E-1
2.241080938E0,2.800789773E-1,9.922552109E0,5.873159766E-1
2.243085469E0,2.704970837E-1,9.917760849E0,5.777340531E-1
2.245090000E0,2.704970837E-1,9.917760849E0,5.681521297E-1
2.247094532E0,2.609151602E-1,9.946506500E0,5.585702062E-1
2.249099063E0,2.561241984E-1,9.951297760E0,5.537792444E-1
2.251103594E0,2.369603664E-1,9.956088066E0,5.441973209E-1
2.253108125E0,2.561241984E-1,9.965670586E0,5.441973209E-1
2.255112657E0,2.369603664E-1,9.960879326E0,5.298244953E-1
2.257117188E0,2.273784578E-1,9.965670586E0,5.106606483E-1
2.259121719E0,2.177965343E-1,9.980043411E0,5.346154571E-1
2.261126250E0,2.034236640E-1,9.989624977E0,5.106606483E-1
2.263130782E0,1.938417554E-1,9.975252151E0,5.154516101E-1
2.265135313E0,1.842598468E-1,9.989624977E0,5.058696866E-1
2.267139844E0,1.746779233E-1,9.994416237E0,5.106606483E-1
2.269144375E0,1.507231444E-1,9.999206543E0,5.154516101E-1
2.271148907E0,1.507231444E-1,1.001837063E1,5.250335336E-1
2.273153438E0,1.171864420E-1,1.002316189E1,4.962877631E-1
2.275157969E0,1.171864420E-1,1.002316189E1,4.914968014E-1
2.277162500E0,8.844070137E-2,1.001357937E1,4.867058396E-1
2.279167032E0,5.969495699E-2,1.001837063E1,5.058696866E-1
2.281171563E0,6.927686930E-2,1.002316189E1,5.154516101E-1
2.283176094E0,2.615825646E-2,1.002795315E1,5.250335336E-1
2.285180625E0,1.178538427E-2,1.004711628E1,5.250335336E-1
2.287185157E0,-2.175131440E-2,1.005190754E1,5.106606483E-1
2.289189688E0,-3.612418473E-2,1.004711628E1,5.298244953E-1
2.291194219E0,-6.966088712E-2,1.005190754E1,5.250335336E-1
2.293198750E0,-1.031975895E-1,1.005669880E1,5.298244953E-1
2.295203282E0,-1.319433302E-1,1.006148911E1,5.298244953E-1
2.297207813E0,-1.702709794E-1,1.006628036E1,5.298244953E-1
2.299212344E0,-1.606890708E-1,1.005669880E1,5.489882827E-1
2.301216875E0,-2.229715139E-1,1.006628036E1,5.441973209E-1
2.303221407E0,-2.421353310E-1,1.006628036E1,5.585702062E-1
2.305225938E0,-2.708810568E-1,1.005669880E1,5.633611679E-1
2.307230469E0,-2.900449038E-1,1.006148911E1,5.633611679E-1
2.309235000E0,-3.379544616E-1,1.006628036E1,5.825250149E-1
2.311239532E0,-3.523273468E-1,1.007107162E1,5.921069384E-1
2.313244063E0,-3.810731173E-1,1.005190754E1,5.873159766E-1
2.315248594E0,-4.146097898E-1,1.004711628E1,5.873159766E-1
2.317253125E0,-4.433555603E-1,1.005669880E1,5.921069384E-1
2.319257657E0,-4.721012712E-1,1.005669880E1,5.968979001E-1
2.321262188E0,-5.104289651E-1,1.004711628E1,5.968979001E-1
2.323266719E0,-5.152199268E-1,1.003753471E1,6.064797640E-1
2.325271250E0,-5.439656377E-1,1.004232597E1,6.016888022E-1
2.327275782E0,-5.775023699E-1,1.002795315E1,6.160616875E-1
2.329280313E0,-5.918751955E-1,1.004232597E1,6.064797640E-1
2.331284844E0,-6.062480807E-1,1.003274345E1,6.016888022E-1
2.333289375E0,-6.493667364E-1,1.002795315E1,6.160616875E-1
2.335293907E0,-6.541576385E-1,1.001837063E1,6.016888022E-1
2.337298438E0,-6.589486003E-1,1.001357937E1,5.968979001E-1
2.339302969E0,-6.972762942E-1,1.002316189E1,5.729430914E-1
2.341307500E0,-6.924853325E-1,1.002795315E1,5.681521297E-1
2.343312032E0,-7.164400816E-1,1.001837063E1,5.633611679E-1
2.345316563E0,-7.164400816E-1,1.003274345E1,5.489882827E-1
2.347321094E0,-7.308129668E-1,1.002316189E1,5.394063592E-1
2.349325625E0,-7.547677755E-1,1.004232597E1,5.202425718E-1
2.351330157E0,-7.787225246E-1,1.004232597E1,4.914968014E-1
2.353334688E0,-7.451858521E-1,1.007107162E1,4.723329842E-1
2.355339219E0,-7.883044481E-1,1.007107162E1,4.387962818E-1
2.357343750E0,-8.026773334E-1,1.008065319E1,4.292143583E-1
2.359348282E0,-8.122592568E-1,1.008544445E1,3.956776857E-1
2.361352813E0,-8.266321421E-1,1.010939884E1,3.813048005E-1
2.363357344E0,-8.266321421E-1,1.011898041E1,3.429771662E-1
2.365361875E0,-8.218411803E-1,1.012856293E1,3.286042809E-1
2.367366407E0,-8.505868912E-1,1.012377167E1,2.998585403E-1
2.369370938E0,-8.649597764E-1,1.014293575E1,2.615308762E-1
2.371375469E0,-8.553778529E-1,1.017168140E1,2.327851355E-1
2.373380000E0,-8.745416999E-1,1.016689014E1,2.040393949E-1
2.375384532E0,-8.889145851E-1,1.018605423E1,1.609207690E-1
2.377389063E0,-8.984964490E-1,1.022438240E1,1.417569518E-1
2.379393594E0,-9.176602960E-1,1.022917271E1,7.947450876E-2
2.381398125E0,-9.224512577E-1,1.024354553E1,6.031067669E-2
2.383402657E0,-9.416151047E-1,1.024354553E1,1.719206572E-2
2.385407188E0,-9.416151047E-1,1.027229118E1,2.819195390E-3
2.387411719E0,-9.655698538E-1,1.029145527E1,-2.592654526E-2
2.389416250E0,-9.799427986E-1,1.030582809E1,-6.425420940E-2
2.391420782E0,-9.943156242E-1,1.031540966E1,-9.299995005E-2
2.393425313E0,-1.008688450E0,1.031540966E1,-1.169547290E-1
2.395429844E0,-1.027852297E0,1.032499218E1,-1.313276142E-1
2.397434375E0,-1.032643318E0,1.033457375E1,-1.600733548E-1
2.399438907E0,-1.056598067E0,1.033457375E1,-2.031919509E-1
2.401443438E0,-1.061388969E0,1.034415627E1,-2.223557979E-1
2.403447969E0,-1.080552816E0,1.035852909E1,-2.415196151E-1
2.405452500E0,-1.109298587E0,1.035852909E1,-2.606834769E-1
2.407457032E0,-1.128462434E0,1.034894657E1,-2.894291878E-1
2.409461563E0,-1.152417183E0,1.036811066E1,-2.990111113E-1
2.411466094E0,-1.181162953E0,1.038727474E1,-2.942201495E-1
2.413470625E0,-1.185953856E0,1.039206505E1,-3.277568817E-1
2.415475157E0,-1.205117702E0,1.038248348E1,-3.517116308E-1
2.417479688E0,-1.219490647E0,1.039206505E1,-3.612935543E-1
2.419484219E0,-1.219490647E0,1.041602039E1,-3.660845160E-1
2.421488750E0,-1.257818222E0,1.042081165E1,-3.900393248E-1
2.423493282E0,-1.267400146E0,1.043039322E1,-3.948302865E-1
2.425497813E0,-1.291355014E0,1.041602039E1,-3.996211886E-1
2.427502344E0,-1.320100665E0,1.045913887E1,-4.092031121E-1
2.429506875E0,-1.339264512E0,1.045913887E1,-4.523217678E-1
2.431511407E0,-1.348846436E0,1.048309326E1,-4.571127295E-1
2.433515938E0,-1.372801185E0,1.047830296E1,-4.666945934E-1
2.435520469E0,-1.406337976E0,1.050704861E1,-4.762765169E-1
2.437525000E0,-1.420710802E0,1.052621269E1,-4.858584404E-1
2.439529532E0,-1.449456573E0,1.051663017E1,-4.906494021E-1
2.441534063E0,-1.487784147E0,1.052621269E1,-5.050222874E-1
2.443538594E0,-1.482993245E0,1.053100300E1,-5.002313256E-1
2.445543125E0,-1.492575169E0,1.054537582E1,-5.098132491E-1
2.447547657E0,-1.511739016E0,1.055016708E1,-5.241860747E-1
2.449552188E0,-1.550066590E0,1.056933117E1,-5.385589600E-1
2.451556719E0,-1.540484667E0,1.055016708E1,-5.481408834E-1
2.453561250E0,-1.593185306E0,1.055974865E1,-5.385589600E-1
2.455565782E0,-1.593185306E0,1.056933117E1,-5.337679982E-1
2.457570313E0,-1.621930957E0,1.055495834E1,-5.433499217E-1
2.459574844E0,-1.645885825E0,1.056933117E1,-5.385589600E-1
2.461579375E0,-1.665049553E0,1.055495834E1,-5.481408834E-1
2.463583907E0,-1.679422498E0,1.055974865E1,-5.385589600E-1
2.465588438E0,-1.684213400E0,1.056453991E1,-5.241860747E-1
2.467592969E0,-1.698586345E0,1.057412148E1,-5.146042109E-1
2.469597500E0,-1.703377247E0,1.055495834E1,-5.146042109E-1
2.471602032E0,-1.722541094E0,1.055974865E1,-5.002313256E-1
2.473606563E0,-1.712959170E0,1.054058552E1,-4.858584404E-1
2.475611094E0,-1.727331996E0,1.053579426E1,-4.619036317E-1
2.477615625E0,-1.732123017E0,1.052142143E1,-4.379488826E-1
2.479620157E0,-1.741704941E0,1.052142143E1,-4.187850356E-1
2.481624688E0,-1.736913919E0,1.049267578E1,-4.139940739E-1
2.483629219E0,-1.746495843E0,1.049267578E1,-3.948302865E-1
2.485633750E0,-1.746495843E0,1.047351170E1,-3.804574013E-1
2.487638282E0,-1.746495843E0,1.047830296E1,-3.517116308E-1
2.489642813E0,-1.741704941E0,1.047830296E1,-3.421297073E-1
2.491647344E0,-1.732123017E0,1.046393013E1,-3.038020730E-1
2.493651875E0,-1.746495843E0,1.045913887E1,-2.702654004E-1
2.495656407E0,-1.741704941E0,1.044955730E1,-2.846382260E-1
2.497660938E0,-1.727331996E0,1.045434761E1,-2.654744387E-1
2.499665469E0,-1.727331996E0,1.044476604E1,-2.415196151E-1
2.501670000E0,-1.746495843E0,1.044476604E1,-2.175648361E-1
2.503674532E0,-1.727331996E0,1.043997478E1,-1.840281337E-1
2.505679063E0,-1.712959170E0,1.045434761E1,-2.031919509E-1
2.507683594E0,-1.712959170E0,1.043997478E1,-1.600733548E-1
2.509688177E0,-1.698586345E0,1.042560196E1,-1.265366524E-1
2.511692761E0,-1.693795323E0,1.043997478E1,-1.265366524E-1
2.513697344E0,-1.684213400E0,1.043518448E1,-1.217456907E-1
2.515701927E0,-1.660258651E0,1.043039322E1,-1.169547290E-1
2.517706511E0,-1.645885825E0,1.040643787E1,-1.121637672E-1
2.519711094E0,-1.631512880E0,1.041122913E1,-8.820898831E-2
2.521715677E0,-1.626721978E0,1.038248348E1,-9.299995005E-2
2.523720261E0,-1.602767110E0,1.039206505E1,-8.820898831E-2
2.525724844E0,-1.593185306E0,1.036331940E1,-8.820898831E-2
2.527729427E0,-1.578812361E0,1.033936501E1,-7.383613288E-2
2.529734011E0,-1.550066590E0,1.031540966E1,-5.946324766E-2
2.531738594E0,-1.545275688E0,1.031061935E1,-5.946324766E-2
2.533743177E0,-1.545275688E0,1.029624653E1,-5.946324766E-2
2.535747761E0,-1.521320939E0,1.028666401E1,-7.383613288E-2
2.537752344E0,-1.521320939E0,1.026750088E1,-8.341802657E-2
2.539756927E0,-1.487784147E0,1.023875523E1,-7.862706482E-2
2.541761511E0,-1.487784147E0,1.023875523E1,-8.820898831E-2
2.543766094E0,-1.454247475E0,1.023396397E1,-8.341802657E-2
2.545770677E0,-1.449456573E0,1.021479988E1,-5.946324766E-2
2.547775261E0,-1.439874649E0,1.020521832E1,-5.946324766E-2
2.549779844E0,-1.430292726E0,1.019084549E1,-8.341802657E-2
2.551784427E0,-1.430292726E0,1.019563580E1,-5.946324766E-2
2.553789011E0,-1.411128879E0,1.018605423E1,-3.550846875E-2
2.555793594E0,-1.387174129E0,1.018605423E1,-6.904517114E-2
2.557798177E0,-1.382383108E0,1.017168140E1,-6.904517114E-2
2.559802761E0,-1.387174129E0,1.016689014E1,-3.550846875E-2
2.561807344E0,-1.353637457E0,1.017647266E1,-4.029943049E-2
2.563811927E0,-1.315309763E0,1.016689014E1,-3.071750700E-2
2.565816511E0,-1.324891686E0,1.018126297E1,-2.592654526E-2
2.567821042E0,-1.300936818E0,1.015730858E1,-3.071750700E-2
2.569825573E0,-1.291355014E0,1.015251732E1,-3.071750700E-2
2.571830104E0,-1.281773090E0,1.014293575E1,-2.592654526E-2
2.573834636E0,-1.257818222E0,1.012377167E1,-2.592654526E-2
2.575839167E0,-1.243445396E0,1.010939884E1,-1.155368984E-2
2.577843698E0,-1.209908724E0,1.009023476E1,-1.155368984E-2
2.579848229E0,-1.200326800E0,1.007107162E1,2.819195390E-3
2.581852761E0,-1.171581030E0,1.004711628E1,2.819195390E-3
2.583857292E0,-1.157208204E0,1.001357937E1,1.240110397E-2
2.585861823E0,-1.142835259E0,9.989624977E0,3.635589778E-2
2.587866354E0,-1.118880510E0,9.970460892E0,2.198302746E-2
2.589870886E0,-1.109298587E0,9.946506500E0,3.156493604E-2
2.591875417E0,-1.070970893E0,9.927342415E0,5.551971495E-2
2.593879948E0,-1.061388969E0,9.879432678E0,6.989260018E-2
2.595884479E0,-1.042225242E0,9.860269547E0,8.426547050E-2
2.597889011E0,-1.032643318E0,9.836314201E0,7.947450876E-2
2.599893542E0,-1.023061395E0,9.793195724E0,8.426547050E-2
2.601898073E0,-1.003897548E0,9.774031639E0,7.947450876E-2
2.603902604E0,-1.008688450E0,9.740495682E0,7.468354702E-2
2.605907136E0,-9.799427986E-1,9.730913162E0,8.426547050E-2
2.607911667E0,-9.799427986E-1,9.706958771E0,8.905641735E-2
2.609916198E0,-9.416151047E-1,9.687794685E0,7.468354702E-2
2.611920729E0,-9.559879303E-1,9.654257774E0,8.905641735E-2
2.613925261E0,-9.224512577E-1,9.644676208E0,8.905641735E-2
2.615929792E0,-9.224512577E-1,9.620721817E0,6.989260018E-2
2.617934323E0,-9.080783725E-1,9.611139297E0,5.551971495E-2
2.619938854E0,-8.937055469E-1,9.572812080E0,6.510163844E-2
2.621943386E0,-8.745416999E-1,9.568020821E0,5.551971495E-2
2.623947917E0,-8.601688147E-1,9.563229561E0,3.156493604E-2
2.625952448E0,-8.697507381E-1,9.534483910E0,2.198302746E-2
2.627956979E0,-8.505868912E-1,9.529693604E0,1.240110397E-2
2.629961511E0,-8.457959294E-1,9.539275169E0,2.819195390E-3
2.631966042E0,-8.601688147E-1,9.534483910E0,-1.971766353E-3
2.633970573E0,-8.410049677E-1,9.529693604E0,-2.113558352E-2
2.635975104E0,-8.457959294E-1,9.520111084E0,-4.029943049E-2
2.637979636E0,-8.457959294E-1,9.515319824E0,-7.383613288E-2
2.639984167E0,-8.457959294E-1,9.524902344E0,-8.820898831E-2
2.641988698E0,-8.553778529E-1,9.520111084E0,-1.025818735E-1
2.643993229E0,-8.505868912E-1,9.520111084E0,-1.121637672E-1
2.645997761E0,-8.314231038E-1,9.520111084E0,-1.265366524E-1
2.648002292E0,-8.170502186E-1,9.515319824E0,-1.504914314E-1
2.650006823E0,-8.457959294E-1,9.529693604E0,-1.648643166E-1
2.652011354E0,-8.266321421E-1,9.520111084E0,-1.840281337E-1
2.654015886E0,-8.266321421E-1,9.520111084E0,-1.696552485E-1
2.656020417E0,-8.218411803E-1,9.539275169E0,-2.175648361E-1
2.658024948E0,-8.266321421E-1,9.534483910E0,-2.271467596E-1
2.660029479E0,-8.362140059E-1,9.539275169E0,-2.271467596E-1
2.662034011E0,-8.266321421E-1,9.544066429E0,-2.463105768E-1
2.664038542E0,-8.218411803E-1,9.568020821E0,-2.558925152E-1
2.666043073E0,-8.266321421E-1,9.582393646E0,-2.558925152E-1
2.668047604E0,-8.074682951E-1,9.572812080E0,-2.558925152E-1
2.670052136E0,-8.026773334E-1,9.577602386E0,-2.654744387E-1
2.672056667E0,-8.026773334E-1,9.591975212E0,-2.606834769E-1
2.674061198E0,-8.074682951E-1,9.611139297E0,-2.606834769E-1
2.676065729E0,-7.835134864E-1,9.615930557E0,-2.606834769E-1
2.678070261E0,-7.930954099E-1,9.635094643E0,-2.511015534E-1
2.680074792E0,-7.787225246E-1,9.654257774E0,-2.558925152E-1
2.682079323E0,-7.643496990E-1,9.683003426E0,-2.558925152E-1
2.684083854E0,-7.643496990E-1,9.692585945E0,-2.463105768E-1
2.686088386E0,-7.547677755E-1,9.721331596E0,-2.175648361E-1
2.688092917E0,-7.260220051E-1,9.759658813E0,-2.271467596E-1
2.690097448E0,-7.116491795E-1,9.802777290E0,-2.031919509E-1
2.692101979E0,-6.924853325E-1,9.850687027E0,-1.936100572E-1
2.694106511E0,-6.972762942E-1,9.903388023E0,-1.984009892E-1
2.696111042E0,-6.829034090E-1,9.951297760E0,-1.744462103E-1
2.698115573E0,-6.685305238E-1,1.000878906E1,-1.744462103E-1
2.700120104E0,-6.589486003E-1,1.008065319E1,-1.504914314E-1
2.702124636E0,-6.397848129E-1,1.015730858E1,-1.600733548E-1
2.704129167E0,-6.541576385E-1,1.020042706E1,-1.265366524E-1
2.706133698E0,-6.349938512E-1,1.027229118E1,-1.217456907E-1
2.708138229E0,-6.254119277E-1,1.034415627E1,-1.217456907E-1
2.710142761E0,-6.206209660E-1,1.039685631E1,-9.299995005E-2
2.712147292E0,-6.014571190E-1,1.045913887E1,-7.862706482E-2
2.714151823E0,-6.014571190E-1,1.052142143E1,-6.904517114E-2
2.716156354E0,-5.918751955E-1,1.054537582E1,-7.862706482E-2
2.718160886E0,-5.727114081E-1,1.056933117E1,-4.988132417E-2
2.720165417E0,-5.487565994E-1,1.061723995E1,-1.971766353E-3
2.722169948E0,-5.248018503E-1,1.063640404E1,2.198302746E-2
2.724174479E0,-4.960560799E-1,1.065556812E1,7.468354702E-2
2.726179011E0,-4.625194073E-1,1.066035938E1,1.178021580E-1
2.728183542E0,-4.241917133E-1,1.062682247E1,1.752936542E-1
2.730188073E0,-3.667002320E-1,1.062682247E1,2.184122652E-1
2.732192604E0,-3.571183085E-1,1.059328556E1,2.567399144E-1
2.734197136E0,-3.092087507E-1,1.055016708E1,3.190223575E-1
2.736201667E0,-2.900449038E-1,1.050704861E1,3.621409833E-1
2.738206198E0,-2.660901546E-1,1.046393013E1,4.292143583E-1
2.740210729E0,-2.565082312E-1,1.040164757E1,4.771239460E-1
2.742215261E0,-2.133895904E-1,1.036811066E1,5.441973209E-1
2.744219792E0,-1.942257732E-1,1.029624653E1,6.112707257E-1
2.746224323E0,-1.750619411E-1,1.024354553E1,6.543893814E-1
2.748228854E0,-1.606890708E-1,1.019563580E1,7.262536883E-1
2.750233386E0,-1.367342919E-1,1.013335419E1,8.029090166E-1
2.752237917E0,-9.840662777E-2,1.007107162E1,8.651914597E-1
2.754242448E0,-7.445184886E-2,1.002316189E1,9.131010175E-1
2.756246979E0,-4.091514647E-2,9.975252151E0,9.801744223E-1
2.758251511E0,-3.133323044E-2,9.927342415E0,1.028084040E0
2.760256042E0,2.203471959E-3,9.889015198E0,1.085575461E0
2.762260573E0,3.574017063E-2,9.850687027E0,1.123903155E0
2.764265104E0,5.490399897E-2,9.812359810E0,1.147857904E0
2.766269636E0,9.323165566E-2,9.778822899E0,1.190976620E0
2.768274167E0,1.171864420E-1,9.745285988E0,1.234095216E0
2.770278698E0,1.507231444E-1,9.706958771E0,1.272422910E0
2.772283229E0,1.986327171E-1,9.663840294E0,1.301168561E0
2.774287761E0,2.130055875E-1,9.630303383E0,1.325123429E0
2.776292292E0,2.609151602E-1,9.601557732E0,1.353869081E0
2.778296823E0,2.800789773E-1,9.568020821E0,1.363451004E0
2.780301354E0,3.040337563E-1,9.539275169E0,1.387405872E0
2.782305886E0,3.615252376E-1,9.491365433E0,1.396987796E0
2.784310417E0,3.998529315E-1,9.472201347E0,1.411360621E0
2.786314948E0,4.333896041E-1,9.429082870E0,1.416151524E0
2.788319479E0,4.429715276E-1,9.400337219E0,1.411360621E0
2.790324011E0,4.908810854E-1,9.366800308E0,1.401778698E0
2.792328542E0,5.148358941E-1,9.347637177E0,1.382614851E0
2.794333073E0,4.956720471E-1,9.328473091E0,1.396987796E0
2.796337604E0,5.435816050E-1,9.309309006E0,1.387405872E0
2.798342136E0,5.723273754E-1,9.266190529E0,1.363451004E0
2.800346667E0,6.154459715E-1,9.256608963E0,1.382614851E0
2.802351198E0,6.441916823E-1,9.242236137E0,1.382614851E0
2.804355729E0,6.585645676E-1,9.232653618E0,1.373032928E0
2.806360261E0,6.777284145E-1,9.203907967E0,1.363451004E0
2.808364792E0,6.825193763E-1,9.179953575E0,1.349078178E0
2.810369323E0,6.968922615E-1,9.189535141E0,1.334705353E0
2.812373854E0,7.016831636E-1,9.184743881E0,1.310750484E0
2.814378386E0,7.304289341E-1,9.170371056E0,1.301168561E0
2.816382917E0,7.543837428E-1,9.179953575E0,1.277213812E0
2.818387448E0,7.591747046E-1,9.179953575E0,1.253259063E0
2.820391979E0,7.495927811E-1,9.184743881E0,1.234095216E0
2.822396511E0,7.639656067E-1,9.199116707E0,1.200558424E0
2.824401042E0,7.448018193E-1,9.203907967E0,1.190976620E0
2.826405573E0,7.256379724E-1,9.199116707E0,1.162230849E0
2.828410104E0,7.495927811E-1,9.199116707E0,1.133485079E0
2.830414636E0,7.448018193E-1,9.194326401E0,1.104739308E0
2.832419167E0,7.783384919E-1,9.208699226E0,1.085575461E0
2.834423698E0,7.879204154E-1,9.203907967E0,1.071202636E0
2.836428229E0,7.975023389E-1,9.223072052E0,1.042456865E0
2.838432761E0,7.735475302E-1,9.223072052E0,9.897563457E-1
2.840437292E0,7.639656067E-1,9.242236137E0,9.562196136E-1
2.842441823E0,7.495927811E-1,9.232653618E0,9.322648644E-1
2.844446354E0,7.208470106E-1,9.242236137E0,8.795643449E-1
2.846450886E0,7.160560489E-1,9.256608963E0,8.747733831E-1
2.848455417E0,6.968922615E-1,9.251817703E0,8.268638253E-1
2.850459948E0,6.681464911E-1,9.270981789E0,7.885361314E-1
2.852464479E0,6.346098185E-1,9.270981789E0,7.597904205E-1
2.854469011E0,6.058640480E-1,9.294936180E0,7.166718245E-1
2.856473542E0,5.723273754E-1,9.309309006E0,6.975079775E-1
2.858478073E0,5.627454519E-1,9.328473091E0,6.639712453E-1
2.860482604E0,5.004630089E-1,9.338054657E0,6.448074579E-1
2.862487136E0,5.004630089E-1,9.328473091E0,6.352255344E-1
2.864491667E0,4.429715276E-1,9.342845917E0,6.112707257E-1
2.866496198E0,4.333896041E-1,9.347637177E0,5.873159766E-1
2.868500729E0,4.046438932E-1,9.371591568E0,5.729430914E-1
2.870505261E0,3.854800463E-1,9.352427483E0,5.489882827E-1
2.872509792E0,3.806890845E-1,9.376382828E0,5.585702062E-1
2.874514323E0,3.327795267E-1,9.381173134E0,5.489882827E-1
2.876518854E0,3.231976032E-1,9.385964394E0,5.441973209E-1
2.878523386E0,2.944518328E-1,9.371591568E0,5.394063592E-1
2.880527917E0,2.896609008E-1,9.371591568E0,5.346154571E-1
2.882532448E0,2.657061219E-1,9.371591568E0,5.154516101E-1
2.884536979E0,2.609151602E-1,9.385964394E0,5.585702062E-1
2.886541511E0,2.369603664E-1,9.395545959E0,5.537792444E-1
2.888546042E0,2.273784578E-1,9.400337219E0,5.633611679E-1
2.890550573E0,2.130055875E-1,9.381173134E0,5.537792444E-1
2.892555104E0,1.986327171E-1,9.400337219E0,5.537792444E-1
2.894559636E0,1.794688851E-1,9.400337219E0,5.729430914E-1
2.896564167E0,1.746779233E-1,9.409918785E0,5.968979001E-1
2.898568698E0,1.507231444E-1,9.419501305E0,5.968979001E-1
2.900573282E0,1.555140913E-1,9.414710045E0,6.064797640E-1
2.902577865E0,1.363502741E-1,9.433874130E0,6.256436110E-1
2.904582448E0,1.123954803E-1,9.443455696E0,6.112707257E-1
2.906587032E0,1.028135717E-1,9.462619781E0,6.400164962E-1
2.908591615E0,9.802260995E-2,9.472201347E0,6.639712453E-1
2.910596198E0,9.323165566E-2,9.486574173E0,6.639712453E-1
2.912600782E0,5.969495699E-2,9.515319824E0,6.735531688E-1
2.914605365E0,5.969495699E-2,9.500946999E0,6.927170157E-1
2.916609948E0,5.011304095E-2,9.524902344E0,7.070899010E-1
2.918614532E0,5.969495699E-2,9.544066429E0,7.118808627E-1
2.920619115E0,3.094921261E-2,9.539275169E0,7.310446501E-1
2.922623698E0,1.178538427E-2,9.568020821E0,7.502084970E-1
2.924628282E0,2.136730030E-2,9.572812080E0,7.693722844E-1
2.926632865E0,-7.378444076E-3,9.591975212E0,7.933270931E-1
2.928637448E0,-7.378444076E-3,9.606348038E0,8.076999784E-1
2.930642032E0,-2.654226869E-2,9.630303383E0,8.124909401E-1
2.932646615E0,-2.654226869E-2,9.635094643E0,8.364456892E-1
2.934651198E0,-4.570610076E-2,9.673421860E0,8.699824214E-1
2.936655782E0,-6.007897109E-2,9.678213120E0,8.699824214E-1
2.938660365E0,-6.486992538E-2,9.711749077E0,9.131010175E-1
2.940664948E0,-9.840662777E-2,9.711749077E0,9.178919792E-1
2.942669532E0,-9.840662777E-2,9.754868507E0,9.418467879E-1
2.944674115E0,-1.175704598E-1,9.759658813E0,9.562196136E-1
2.946678698E0,-1.127794981E-1,9.778822899E0,9.514287114E-1
2.948683282E0,-1.223614067E-1,9.812359810E0,9.705924988E-1
2.950687865E0,-1.415252388E-1,9.836314201E0,9.753834605E-1
2.952692448E0,-1.654800326E-1,9.831523895E0,1.004129291E0
2.954697032E0,-1.798529029E-1,9.884223938E0,1.013711214E0
2.956701615E0,-1.750619411E-1,9.879432678E0,1.018502116E0
2.958706146E0,-2.229715139E-1,9.903388023E0,1.042456865E0
2.960710677E0,-2.181805521E-1,9.922552109E0,1.071202636E0
2.962715209E0,-2.325534374E-1,9.927342415E0,1.066411734E0
2.964719740E0,-2.469262928E-1,9.941715240E0,1.080784559E0
2.966724271E0,-2.660901546E-1,9.951297760E0,1.099948406E0
2.968728802E0,-2.708810568E-1,9.960879326E0,1.114321232E0
2.970733334E0,-2.900449038E-1,9.980043411E0,1.123903155E0
2.972737865E0,-3.092087507E-1,9.960879326E0,1.138275981E0
2.974742396E0,-3.379544616E-1,9.975252151E0,1.147857904E0
2.976746927E0,-3.379544616E-1,9.984833717E0,1.167021751E0
2.978751459E0,-3.379544616E-1,9.956088066E0,1.181394696E0
2.980755990E0,-3.810731173E-1,9.960879326E0,1.200558424E0
2.982760521E0,-3.810731173E-1,9.970460892E0,1.210140347E0
2.984765052E0,-4.098188281E-1,9.956088066E0,1.214931369E0
2.986769584E0,-4.289826751E-1,9.951297760E0,1.243677139E0
2.988774115E0,-4.481465220E-1,9.960879326E0,1.267631888E0
2.990778646E0,-4.673103094E-1,9.946506500E0,1.282004833E0
2.992783177E0,-4.673103094E-1,9.932133675E0,1.305959582E0
2.994787709E0,-4.721012712E-1,9.903388023E0,1.315541506E0
2.996792240E0,-5.008470416E-1,9.912969589E0,1.320332408E0
2.998796771E0,-4.912651181E-1,9.908178329E0,1.339496255E0
3.000801302E0,-5.056380033E-1,9.908178329E0,1.368242025E0
3.002805834E0,-5.200108886E-1,9.884223938E0,1.344287276E0
3.004810365E0,-5.439656377E-1,9.874642372E0,1.377823949E0
3.006814896E0,-5.391746759E-1,9.869851112E0,1.406569719E0
3.008819427E0,-5.535475612E-1,9.874642372E0,1.396987796E0
3.010823959E0,-5.391746759E-1,9.850687027E0,1.416151524E0
3.012828490E0,-5.487565994E-1,9.850687027E0,1.430524468E0
3.014833021E0,-5.775023699E-1,9.831523895E0,1.449688315E0
3.016837552E0,-5.583385229E-1,9.841105461E0,1.468852162E0
3.018842084E0,-5.583385229E-1,9.807568550E0,1.483224988E0
3.020846615E0,-5.583385229E-1,9.788404465E0,1.492806911E0
3.022851146E0,-5.679204464E-1,9.764450073E0,1.502388835E0
3.024855677E0,-5.679204464E-1,9.759658813E0,1.526343584E0
3.026860209E0,-5.631294847E-1,9.745285988E0,1.545507431E0
3.028864740E0,-5.535475612E-1,9.716540337E0,1.550298333E0
3.030869271E0,-5.583385229E-1,9.711749077E0,1.574253201E0
3.032873802E0,-5.391746759E-1,9.683003426E0,1.559880257E0
3.034878334E0,-5.343837142E-1,9.673421860E0,1.579044104E0
3.036882865E0,-5.343837142E-1,9.678213120E0,1.583835125E0
3.038887396E0,-5.152199268E-1,9.659049034E0,1.588626027E0
3.040891927E0,-5.056380033E-1,9.649467468E0,1.579044104E0
3.042896459E0,-4.912651181E-1,9.630303383E0,1.593417048E0
3.044900990E0,-4.912651181E-1,9.644676208E0,1.598207951E0
3.046905521E0,-4.912651181E-1,9.649467468E0,1.588626027E0
3.048910052E0,-4.768922329E-1,9.649467468E0,1.569462180E0
3.050914584E0,-4.481465220E-1,9.644676208E0,1.574253201E0
3.052919115E0,-4.385645986E-1,9.654257774E0,1.569462180E0
3.054923646E0,-4.337736368E-1,9.649467468E0,1.535925508E0
3.056928177E0,-3.954459429E-1,9.659049034E0,1.535925508E0
3.058932709E0,-3.858640790E-1,9.668630600E0,1.540716410E0
3.060937240E0,-3.667002320E-1,9.683003426E0,1.511970758E0
3.062941771E0,-3.427454233E-1,9.687794685E0,1.516761661E0
3.064946302E0,-3.235816360E-1,9.702167511E0,1.492806911E0
3.066950834E0,-3.187906742E-1,9.716540337E0,1.488015890E0
3.068955365E0,-3.044177890E-1,9.721331596E0,1.464061141E0
3.070959896E0,-2.756720185E-1,9.745285988E0,1.454479218E0
3.072964427E0,-2.660901546E-1,9.750077248E0,1.430524468E0
3.074968959E0,-2.469262928E-1,9.783614159E0,1.416151524E0
3.076973490E0,-2.517172694E-1,9.783614159E0,1.406569719E0
3.078978021E0,-2.277624756E-1,9.812359810E0,1.368242025E0
3.080982552E0,-2.229715139E-1,9.817150116E0,1.373032928E0
3.082987084E0,-2.181805521E-1,9.821941376E0,1.344287276E0
3.084991615E0,-1.846438497E-1,9.836314201E0,1.334705353E0
3.086996146E0,-1.942257732E-1,9.845896721E0,1.320332408E0
3.089000677E0,-1.798529029E-1,9.869851112E0,1.310750484E0
3.091005209E0,-1.702709794E-1,9.865059853E0,1.282004833E0
3.093009740E0,-1.606890708E-1,9.869851112E0,1.301168561E0
3.095014271E0,-1.415252388E-1,9.869851112E0,1.291586637E0
3.097018802E0,-1.367342919E-1,9.865059853E0,1.296377659E0
3.099023334E0,-1.271523684E-1,9.869851112E0,1.282004833E0
3.101027865E0,-1.127794981E-1,9.879432678E0,1.301168561E0
3.103032396E0,-1.031975895E-1,9.869851112E0,1.305959582E0
3.105036927E0,-8.882471919E-2,9.865059853E0,1.310750484E0
3.107041459E0,-7.924279571E-2,9.855478287E0,1.329914331E0
3.109045990E0,-7.924279571E-2,9.850687027E0,1.305959582E0
3.111050521E0,-6.007897109E-2,9.860269547E0,1.320332408E0
3.113055052E0,-6.486992538E-2,9.860269547E0,1.315541506E0
3.115059584E0,-6.007897109E-2,9.865059853E0,1.301168561E0
3.117064115E0,-5.528801680E-2,9.874642372E0,1.291586637E0
3.119068646E0,-3.133323044E-2,9.865059853E0,1.301168561E0
3.121073177E0,-3.133323044E-2,9.874642372E0,1.329914331E0
3.123077709E0,-4.570610076E-2,9.879432678E0,1.310750484E0
3.125082240E0,-2.654226869E-2,9.884223938E0,1.291586637E0
3.127086771E0,-7.378444076E-3,9.879432678E0,1.286795735E0
3.129091302E0,-1.696036011E-2,9.860269547E0,1.296377659E0
3.131095834E0,-1.216939837E-2,9.869851112E0,1.286795735E0
3.133100365E0,2.203471959E-3,9.860269547E0,1.286795735E0
3.135104896E0,1.178538427E-2,9.855478287E0,1.282004833E0
3.137109427E0,2.136730030E-2,9.855478287E0,1.277213812E0
3.139113959E0,1.178538427E-2,9.865059853E0,1.291586637E0
3.141118490E0,-2.587486058E-3,9.841105461E0,1.262840986E0
3.143123021E0,-1.216939837E-2,9.850687027E0,1.262840986E0
3.145127552E0,-2.175131440E-2,9.850687027E0,1.272422910E0
3.147132084E0,-1.216939837E-2,9.845896721E0,1.272422910E0
3.149136615E0,-7.378444076E-3,9.831523895E0,1.253259063E0
3.151141146E0,-2.587486058E-3,9.841105461E0,1.238886118E0
3.153145677E0,-2.175131440E-2,9.860269547E0,1.253259063E0
3.155150209E0,-4.091514647E-2,9.855478287E0,1.214931369E0
3.157154740E0,-6.486992538E-2,9.850687027E0,1.214931369E0
3.159159271E0,-9.361566603E-2,9.855478287E0,1.219722271E0
3.161163802E0,-8.403375745E-2,9.850687027E0,1.205349445E0
3.163168334E0,-1.079885364E-1,9.841105461E0,1.214931369E0
3.165172865E0,-1.079885364E-1,9.831523895E0,1.205349445E0
3.167177396E0,-1.175704598E-1,9.850687027E0,1.214931369E0
3.169181927E0,-1.319433302E-1,9.845896721E0,1.224513292E0
3.171186459E0,-1.319433302E-1,9.855478287E0,1.224513292E0
3.173190990E0,-1.271523684E-1,9.874642372E0,1.214931369E0
3.175195521E0,-1.319433302E-1,9.860269547E0,1.214931369E0
3.177200052E0,-1.271523684E-1,9.874642372E0,1.224513292E0
3.179204584E0,-1.367342919E-1,9.879432678E0,1.234095216E0
3.181209115E0,-1.367342919E-1,9.884223938E0,1.219722271E0
3.183213646E0,-1.223614067E-1,9.884223938E0,1.219722271E0
3.185218177E0,-1.367342919E-1,9.869851112E0,1.238886118E0
3.187222709E0,-1.367342919E-1,9.860269547E0,1.243677139E0
3.189227240E0,-1.463162005E-1,9.860269547E0,1.253259063E0
3.191231771E0,-1.415252388E-1,9.855478287E0,1.258049965E0
3.193236302E0,-1.271523684E-1,9.865059853E0,1.282004833E0
3.195240834E0,-1.415252388E-1,9.850687027E0,1.296377659E0
3.197245365E0,-1.511071622E-1,9.850687027E0,1.305959582E0
3.199249896E0,-1.511071622E-1,9.841105461E0,1.320332408E0
3.201254427E0,-1.702709794E-1,9.841105461E0,1.339496255E0
3.203258959E0,-1.606890708E-1,9.831523895E0,1.329914331E0
3.205263490E0,-1.846438497E-1,9.821941376E0,1.325123429E0
3.207268021E0,-1.846438497E-1,9.807568550E0,1.349078178E0
3.209272552E0,-1.942257732E-1,9.793195724E0,1.373032928E0
3.211277084E0,-2.038076967E-1,9.802777290E0,1.368242025E0
3.213281615E0,-2.133895904E-1,9.797986984E0,1.363451004E0
3.215286146E0,-2.181805521E-1,9.764450073E0,1.373032928E0
3.217290677E0,-2.373443693E-1,9.783614159E0,1.382614851E0
3.219295209E0,-2.373443693E-1,9.774031639E0,1.416151524E0
3.221299740E0,-2.469262928E-1,9.759658813E0,1.420942545E0
3.223304271E0,-2.612991929E-1,9.754868507E0,1.435315371E0
3.225308802E0,-2.612991929E-1,9.735704422E0,1.454479218E0
3.227313334E0,-2.756720185E-1,9.740495682E0,1.459270239E0
3.229317865E0,-3.092087507E-1,9.750077248E0,1.488015890E0
3.231322396E0,-2.996268272E-1,9.730913162E0,1.478433967E0
3.233326927E0,-2.900449038E-1,9.759658813E0,1.478433967E0
3.235331459E0,-3.044177890E-1,9.754868507E0,1.468852162E0
3.237335990E0,-3.092087507E-1,9.730913162E0,1.468852162E0
3.239340521E0,-3.187906742E-1,9.745285988E0,1.478433967E0
3.241345052E0,-3.139997125E-1,9.745285988E0,1.478433967E0
3.243349584E0,-3.331634998E-1,9.721331596E0,1.483224988E0
3.245354115E0,-3.187906742E-1,9.726122856E0,1.483224988E0
3.247358646E0,-2.996268272E-1,9.711749077E0,1.497597814E0
3.249363177E0,-2.948358655E-1,9.702167511E0,1.488015890E0
3.251367709E0,-3.044177890E-1,9.687794685E0,1.502388835E0
3.253372240E0,-3.139997125E-1,9.697376251E0,1.492806911E0
3.255376771E0,-2.948358655E-1,9.683003426E0,1.488015890E0
3.257381302E0,-3.044177890E-1,9.687794685E0,1.483224988E0
3.259385834E0,-2.756720185E-1,9.683003426E0,1.473643064E0
3.261390365E0,-2.612991929E-1,9.702167511E0,1.473643064E0
3.263394948E0,-2.612991929E-1,9.683003426E0,1.459270239E0
3.265399532E0,-2.565082312E-1,9.683003426E0,1.459270239E0
3.267404115E0,-2.325534374E-1,9.668630600E0,1.459270239E0
3.269408698E0,-2.229715139E-1,9.687794685E0,1.444897294E0
3.271413282E0,-1.942257732E-1,9.683003426E0,1.435315371E0
3.273417865E0,-1.798529029E-1,9.663840294E0,1.430524468E0
3.275422448E0,-1.463162005E-1,9.668630600E0,1.396987796E0
3.277427032E0,-1.271523684E-1,9.673421860E0,1.387405872E0
3.279431615E0,-9.361566603E-2,9.683003426E0,1.373032928E0
3.281436198E0,-7.924279571E-2,9.697376251E0,1.349078178E0
3.283440782E0,-3.612418473E-2,9.702167511E0,1.353869081E0
3.285445365E0,-3.612418473E-2,9.721331596E0,1.329914331E0
3.287449948E0,3.574017063E-2,9.716540337E0,1.301168561E0
3.289454532E0,3.574017063E-2,9.754868507E0,1.310750484E0
3.291459115E0,5.969495699E-2,9.759658813E0,1.296377659E0
3.293463698E0,9.802260995E-2,9.769241333E0,1.267631888E0
3.295468282E0,1.171864420E-1,9.769241333E0,1.272422910E0
3.297472865E0,1.171864420E-1,9.759658813E0,1.262840986E0
3.299477448E0,1.411412358E-1,9.769241333E0,1.282004833E0
3.301482032E0,1.650960147E-1,9.774031639E0,1.272422910E0
3.303486615E0,1.938417554E-1,9.774031639E0,1.258049965E0
3.305491198E0,2.034236640E-1,9.769241333E0,1.262840986E0
3.307495782E0,2.321694046E-1,9.769241333E0,1.277213812E0
3.309500365E0,2.561241984E-1,9.754868507E0,1.253259063E0
3.311504948E0,2.752880454E-1,9.774031639E0,1.243677139E0
3.313509532E0,2.896609008E-1,9.769241333E0,1.248468041E0
3.315514115E0,3.184066415E-1,9.783614159E0,1.253259063E0
3.317518698E0,3.136156797E-1,9.783614159E0,1.262840986E0
3.319523282E0,3.567342758E-1,9.778822899E0,1.238886118E0
3.321527813E0,3.663161993E-1,9.793195724E0,1.238886118E0
3.323532344E0,3.615252376E-1,9.817150116E0,1.219722271E0
3.325536875E0,3.758981228E-1,9.817150116E0,1.219722271E0
3.327541407E0,3.902710080E-1,9.831523895E0,1.219722271E0
3.329545938E0,3.711071610E-1,9.836314201E0,1.234095216E0
3.331550469E0,3.902710080E-1,9.860269547E0,1.238886118E0
3.333555000E0,3.998529315E-1,9.865059853E0,1.210140347E0
3.335559532E0,3.902710080E-1,9.860269547E0,1.214931369E0
3.337564063E0,3.950619698E-1,9.884223938E0,1.219722271E0
3.339568594E0,3.950619698E-1,9.869851112E0,1.224513292E0
3.341573125E0,3.902710080E-1,9.889015198E0,1.195767522E0
3.343577657E0,3.902710080E-1,9.893805504E0,1.219722271E0
3.345582188E0,3.998529315E-1,9.893805504E0,1.238886118E0
3.347586719E0,4.094347954E-1,9.869851112E0,1.224513292E0
3.349591250E0,3.902710080E-1,9.893805504E0,1.229304194E0
3.351595782E0,4.094347954E-1,9.884223938E0,1.219722271E0
3.353600313E0,3.902710080E-1,9.879432678E0,1.229304194E0
3.355604844E0,3.950619698E-1,9.898596764E0,1.238886118E0
3.357609375E0,3.998529315E-1,9.893805504E0,1.229304194E0
3.359613907E0,3.998529315E-1,9.898596764E0,1.243677139E0
3.361614740E0,3.854800463E-1,9.893805504E0,1.253259063E0
3.363615573E0,3.663161993E-1,9.884223938E0,1.243677139E0
3.365616823E0,3.902710080E-1,9.898596764E0,1.258049965E0
3.367618594E0,3.854800463E-1,9.884223938E0,1.272422910E0
3.369620990E0,3.854800463E-1,9.889015198E0,1.277213812E0
3.371624063E0,3.854800463E-1,9.889015198E0,1.277213812E0
3.373627865E0,3.854800463E-1,9.898596764E0,1.291586637E0
3.375632396E0,3.902710080E-1,9.908178329E0,1.282004833E0
3.377637604E0,3.902710080E-1,9.917760849E0,1.282004833E0
3.379643438E0,3.950619698E-1,9.917760849E0,1.291586637E0
3.381649844E0,3.950619698E-1,9.922552109E0,1.301168561E0
3.383656719E0,3.854800463E-1,9.951297760E0,1.310750484E0
3.385663959E0,3.854800463E-1,9.932133675E0,1.310750484E0
3.387671407E0,3.663161993E-1,9.965670586E0,1.334705353E0
3.389678959E0,3.615252376E-1,9.960879326E0,1.320332408E0
3.391686511E0,3.711071610E-1,9.951297760E0,1.305959582E0
3.393691302E0,3.663161993E-1,9.975252151E0,1.320332408E0
3.395695834E0,3.615252376E-1,9.984833717E0,1.329914331E0
3.397700365E0,3.519433141E-1,9.989624977E0,1.334705353E0
3.399704896E0,3.471523523E-1,9.994416237E0,1.339496255E0
3.401709427E0,3.423614502E-1,9.989624977E0,1.329914331E0
3.403713959E0,3.184066415E-1,9.989624977E0,1.325123429E0
3.405718490E0,3.136156797E-1,9.989624977E0,1.334705353E0
3.407723021E0,3.184066415E-1,9.994416237E0,1.334705353E0
3.409727552E0,2.848699391E-1,1.000399780E1,1.329914331E0
3.411732084E0,2.752880454E-1,9.999206543E0,1.344287276E0
3.413736615E0,2.513332367E-1,1.000399780E1,1.353869081E0
3.415741146E0,2.321694046E-1,9.994416237E0,1.349078178E0
3.417745677E0,2.130055875E-1,9.975252151E0,1.363451004E0
3.419750209E0,2.225874960E-1,9.984833717E0,1.358660102E0
3.421754740E0,2.034236640E-1,9.956088066E0,1.358660102E0
3.423759271E0,1.842598468E-1,9.946506500E0,1.368242025E0
3.425763802E0,1.746779233E-1,9.936924934E0,1.368242025E0
3.427768334E0,1.555140913E-1,9.927342415E0,1.358660102E0
3.429772865E0,1.507231444E-1,9.922552109E0,1.382614851E0
3.431777396E0,1.363502741E-1,9.922552109E0,1.387405872E0
3.433781927E0,1.123954803E-1,9.908178329E0,1.358660102E0
3.435786459E0,1.123954803E-1,9.884223938E0,1.392196774E0
3.437790990E0,1.076045260E-1,9.869851112E0,1.401778698E0
3.439795521E0,8.364973962E-2,9.865059853E0,1.411360621E0
3.441800052E0,7.406783104E-2,9.860269547E0,1.401778698E0
3.443804584E0,7.885878533E-2,9.855478287E0,1.416151524E0
3.445809115E0,8.364973962E-2,9.831523895E0,1.416151524E0
3.447813646E0,6.448591501E-2,9.831523895E0,1.411360621E0
3.449818177E0,6.448591501E-2,9.802777290E0,1.396987796E0
3.451822709E0,3.574017063E-2,9.807568550E0,1.392196774E0
3.453827240E0,5.011304095E-2,9.831523895E0,1.401778698E0
3.455831771E0,4.053112864E-2,9.807568550E0,1.401778698E0
3.457836302E0,3.574017063E-2,9.836314201E0,1.420942545E0
3.459840834E0,3.094921261E-2,9.817150116E0,1.392196774E0
3.461845365E0,2.615825646E-2,9.793195724E0,1.406569719E0
3.463849896E0,6.994426250E-3,9.783614159E0,1.373032928E0
3.465854427E0,1.178538427E-2,9.774031639E0,1.396987796E0
3.467858959E0,2.203471959E-3,9.754868507E0,1.406569719E0
3.469863490E0,2.203471959E-3,9.735704422E0,1.406569719E0
3.471868021E0,-2.175131440E-2,9.730913162E0,1.416151524E0
3.473872552E0,-2.175131440E-2,9.702167511E0,1.411360621E0
3.475877084E0,-1.216939837E-2,9.678213120E0,1.430524468E0
3.477881615E0,-2.175131440E-2,9.668630600E0,1.411360621E0
3.479886146E0,-3.612418473E-2,9.639884949E0,1.435315371E0
3.481890677E0,-2.654226869E-2,9.615930557E0,1.449688315E0
3.483895209E0,-2.654226869E-2,9.620721817E0,1.444897294E0
3.485899740E0,-2.654226869E-2,9.577602386E0,1.449688315E0
3.487904271E0,-2.654226869E-2,9.568020821E0,1.449688315E0
3.489908802E0,-2.654226869E-2,9.558439255E0,1.464061141E0
3.491913334E0,-2.175131440E-2,9.544066429E0,1.440106392E0
3.493917865E0,-2.654226869E-2,9.539275169E0,1.444897294E0
3.495922396E0,-1.216939837E-2,9.558439255E0,1.430524468E0
3.497926927E0,-7.378444076E-3,9.577602386E0,1.430524468E0
3.499931459E0,1.178538427E-2,9.563229561E0,1.416151524E0
3.501935990E0,6.994426250E-3,9.587184906E0,1.425733447E0
3.503940521E0,2.615825646E-2,9.606348038E0,1.411360621E0
3.505945052E0,5.969495699E-2,9.620721817E0,1.401778698E0
3.507949584E0,6.448591501E-2,9.630303383E0,1.401778698E0
3.509954115E0,7.406783104E-2,9.649467468E0,1.382614851E0
3.511958646E0,8.364973962E-2,9.644676208E0,1.373032928E0
3.513963177E0,1.076045260E-1,9.654257774E0,1.363451004E0
3.515967709E0,1.123954803E-1,9.639884949E0,1.349078178E0
3.517972240E0,1.219773963E-1,9.644676208E0,1.358660102E0
3.519976771E0,1.555140913E-1,9.663840294E0,1.329914331E0
3.521981302E0,1.555140913E-1,9.639884949E0,1.339496255E0
3.523985834E0,1.698869765E-1,9.625512123E0,1.339496255E0
3.525990365E0,1.794688851E-1,9.611139297E0,1.339496255E0
3.527994896E0,1.938417554E-1,9.611139297E0,1.325123429E0
3.529999427E0,1.794688851E-1,9.591975212E0,1.329914331E0
3.532003959E0,1.986327171E-1,9.587184906E0,1.305959582E0
3.534008490E0,2.130055875E-1,9.572812080E0,1.339496255E0
3.536013021E0,2.177965343E-1,9.563229561E0,1.310750484E0
3.538017552E0,1.938417554E-1,9.553647995E0,1.315541506E0
3.540022084E0,2.130055875E-1,9.544066429E0,1.329914331E0
3.542026615E0,2.225874960E-1,9.544066429E0,1.310750484E0
3.544031146E0,2.417513281E-1,9.520111084E0,1.315541506E0
3.546035677E0,2.273784578E-1,9.529693604E0,1.325123429E0
3.548040209E0,2.417513281E-1,9.505738258E0,1.329914331E0
3.550044740E0,2.417513281E-1,9.520111084E0,1.320332408E0
3.552049271E0,2.417513281E-1,9.520111084E0,1.310750484E0
3.554053802E0,2.369603664E-1,9.520111084E0,1.301168561E0
3.556058334E0,2.369603664E-1,9.539275169E0,1.320332408E0
3.558062865E0,2.369603664E-1,9.544066429E0,1.310750484E0
3.560067396E0,2.321694046E-1,9.568020821E0,1.301168561E0
3.562071927E0,2.417513281E-1,9.572812080E0,1.296377659E0
3.564076459E0,2.369603664E-1,9.615930557E0,1.305959582E0
3.566080990E0,2.321694046E-1,9.644676208E0,1.291586637E0
3.568085521E0,2.417513281E-1,9.639884949E0,1.286795735E0
3.570090052E0,2.465422899E-1,9.683003426E0,1.296377659E0
3.572094584E0,2.465422899E-1,9.706958771E0,1.291586637E0
3.574099115E0,2.417513281E-1,9.721331596E0,1.291586637E0
3.576103646E0,2.513332367E-1,9.730913162E0,1.305959582E0
3.578108177E0,2.561241984E-1,9.764450073E0,1.296377659E0
3.580112709E0,2.369603664E-1,9.778822899E0,1.301168561E0
3.582117240E0,2.609151602E-1,9.802777290E0,1.315541506E0
3.584121771E0,2.513332367E-1,9.807568550E0,1.320332408E0
3.586126302E0,2.609151602E-1,9.812359810E0,1.329914331E0
3.588130834E0,2.561241984E-1,9.821941376E0,1.349078178E0
3.590135365E0,2.609151602E-1,9.793195724E0,1.344287276E0
3.592139896E0,2.657061219E-1,9.821941376E0,1.363451004E0
3.594144427E0,2.609151602E-1,9.807568550E0,1.358660102E0
3.596148959E0,2.704970837E-1,9.788404465E0,1.392196774E0
3.598153490E0,2.609151602E-1,9.802777290E0,1.382614851E0
3.600158021E0,2.657061219E-1,9.812359810E0,1.396987796E0
3.602162552E0,2.752880454E-1,9.793195724E0,1.411360621E0
3.604167084E0,2.800789773E-1,9.812359810E0,1.411360621E0
3.606171615E0,2.609151602E-1,9.812359810E0,1.430524468E0
3.608176146E0,2.609151602E-1,9.836314201E0,1.425733447E0
3.610180677E0,2.465422899E-1,9.821941376E0,1.430524468E0
3.612185209E0,2.513332367E-1,9.821941376E0,1.440106392E0
3.614189740E0,2.465422899E-1,9.845896721E0,1.444897294E0
3.616194271E0,2.465422899E-1,9.841105461E0,1.468852162E0
3.618198802E0,2.321694046E-1,9.855478287E0,1.473643064E0
3.620203334E0,2.321694046E-1,9.845896721E0,1.473643064E0
3.622207865E0,2.465422899E-1,9.841105461E0,1.478433967E0
3.624212396E0,2.417513281E-1,9.860269547E0,1.492806911E0
3.626216927E0,2.321694046E-1,9.860269547E0,1.478433967E0
3.628221459E0,2.130055875E-1,9.874642372E0,1.478433967E0
3.630225990E0,2.130055875E-1,9.869851112E0,1.473643064E0
3.632230521E0,1.938417554E-1,9.884223938E0,1.464061141E0
3.634235052E0,1.938417554E-1,9.889015198E0,1.468852162E0
3.636239584E0,1.794688851E-1,9.889015198E0,1.459270239E0
3.638244115E0,1.698869765E-1,9.874642372E0,1.454479218E0
3.640248646E0,1.746779233E-1,9.879432678E0,1.464061141E0
3.642253177E0,1.650960147E-1,9.879432678E0,1.449688315E0
3.644257709E0,1.650960147E-1,9.874642372E0,1.464061141E0
3.646262240E0,1.411412358E-1,9.869851112E0,1.459270239E0
3.648266771E0,1.459321827E-1,9.865059853E0,1.440106392E0
3.650271302E0,1.315593123E-1,9.865059853E0,1.440106392E0
3.652275834E0,1.315593123E-1,9.879432678E0,1.435315371E0
3.654280365E0,1.267683506E-1,9.865059853E0,1.430524468E0
3.656284896E0,1.171864420E-1,9.855478287E0,1.416151524E0
3.658289427E0,1.076045260E-1,9.869851112E0,1.406569719E0
3.660293959E0,1.219773963E-1,9.836314201E0,1.430524468E0
3.662298490E0,1.219773963E-1,9.845896721E0,1.425733447E0
3.664303021E0,1.171864420E-1,9.845896721E0,1.420942545E0
3.666307552E0,9.323165566E-2,9.831523895E0,1.430524468E0
3.668312084E0,1.076045260E-1,9.802777290E0,1.435315371E0
3.670316615E0,9.802260995E-2,9.793195724E0,1.425733447E0
3.672321146E0,1.076045260E-1,9.783614159E0,1.396987796E0
3.674325677E0,8.844070137E-2,9.778822899E0,1.406569719E0
3.676330209E0,1.219773963E-1,9.778822899E0,1.406569719E0
3.678334740E0,1.315593123E-1,9.778822899E0,1.416151524E0
3.680339271E0,9.802260995E-2,9.778822899E0,1.377823949E0
3.682343802E0,9.323165566E-2,9.788404465E0,1.373032928E0
3.684348386E0,1.028135717E-1,9.788404465E0,1.368242025E0
3.686352969E0,9.323165566E-2,9.769241333E0,1.373032928E0
3.688357552E0,8.364973962E-2,9.764450073E0,1.373032928E0
3.690362136E0,7.406783104E-2,9.783614159E0,1.363451004E0
3.692366719E0,6.927686930E-2,9.778822899E0,1.353869081E0
3.694371302E0,7.885878533E-2,9.759658813E0,1.373032928E0
3.696375886E0,8.364973962E-2,9.750077248E0,1.373032928E0
3.698380469E0,7.885878533E-2,9.735704422E0,1.377823949E0
3.700385052E0,8.844070137E-2,9.721331596E0,1.382614851E0
3.702389636E0,8.844070137E-2,9.711749077E0,1.377823949E0
3.704394219E0,9.802260995E-2,9.673421860E0,1.382614851E0
3.706398802E0,9.323165566E-2,9.673421860E0,1.377823949E0
3.708403386E0,1.171864420E-1,9.678213120E0,1.382614851E0
3.710407969E0,1.028135717E-1,9.673421860E0,1.377823949E0
3.712412552E0,1.123954803E-1,9.659049034E0,1.382614851E0
3.714417136E0,1.076045260E-1,9.649467468E0,1.358660102E0
3.716421719E0,1.076045260E-1,9.625512123E0,1.358660102E0
3.718426302E0,1.123954803E-1,9.635094643E0,1.344287276E0
3.720430886E0,9.802260995E-2,9.644676208E0,1.334705353E0
3.722435469E0,8.364973962E-2,9.639884949E0,1.310750484E0
3.724440052E0,8.844070137E-2,9.663840294E0,1.310750484E0
3.726444636E0,1.076045260E-1,9.644676208E0,1.310750484E0
3.728449219E0,9.802260995E-2,9.644676208E0,1.305959582E0
3.730453802E0,1.076045260E-1,9.649467468E0,1.286795735E0
3.732458386E0,1.028135717E-1,9.663840294E0,1.277213812E0
3.734462969E0,1.028135717E-1,9.673421860E0,1.262840986E0
3.736467552E0,7.406783104E-2,9.668630600E0,1.272422910E0
3.738472136E0,1.028135717E-1,9.678213120E0,1.243677139E0
3.740476719E0,8.844070137E-2,9.649467468E0,1.248468041E0
3.742481302E0,1.076045260E-1,9.673421860E0,1.267631888E0
3.744485834E0,9.323165566E-2,9.654257774E0,1.272422910E0
3.746490365E0,1.171864420E-1,9.678213120E0,1.253259063E0
3.748494896E0,1.171864420E-1,9.659049034E0,1.253259063E0
3.750499427E0,9.802260995E-2,9.644676208E0,1.243677139E0
3.752503959E0,1.076045260E-1,9.683003426E0,1.248468041E0
3.754508490E0,1.028135717E-1,9.687794685E0,1.248468041E0
3.756513021E0,7.406783104E-2,9.683003426E0,1.238886118E0
3.758517552E0,1.028135717E-1,9.706958771E0,1.248468041E0
3.760522084E0,1.028135717E-1,9.726122856E0,1.248468041E0
3.762526615E0,8.364973962E-2,9.716540337E0,1.238886118E0
3.764531146E0,8.844070137E-2,9.740495682E0,1.224513292E0
3.766535677E0,9.802260995E-2,9.745285988E0,1.248468041E0
3.768540209E0,1.123954803E-1,9.745285988E0,1.253259063E0
3.770544740E0,1.315593123E-1,9.745285988E0,1.248468041E0
3.772549271E0,1.171864420E-1,9.754868507E0,1.253259063E0
3.774553802E0,1.219773963E-1,9.754868507E0,1.272422910E0
3.776558334E0,1.171864420E-1,9.740495682E0,1.277213812E0
3.778562865E0,1.411412358E-1,9.759658813E0,1.272422910E0
3.780567396E0,1.507231444E-1,9.740495682E0,1.272422910E0
3.782571927E0,1.363502741E-1,9.735704422E0,1.277213812E0
3.784576459E0,1.555140913E-1,9.721331596E0,1.286795735E0
3.786580990E0,1.267683506E-1,9.716540337E0,1.272422910E0
3.788585521E0,1.507231444E-1,9.721331596E0,1.277213812E0
3.790590052E0,1.267683506E-1,9.702167511E0,1.267631888E0
3.792594584E0,1.363502741E-1,9.697376251E0,1.286795735E0
3.794599115E0,1.411412358E-1,9.697376251E0,1.277213812E0
3.796603646E0,1.363502741E-1,9.702167511E0,1.267631888E0
3.798608177E0,1.171864420E-1,9.683003426E0,1.258049965E0
3.800612709E0,1.028135717E-1,9.687794685E0,1.258049965E0
3.802617240E0,9.802260995E-2,9.683003426E0,1.253259063E0
3.804621771E0,1.076045260E-1,9.678213120E0,1.258049965E0
3.806626302E0,1.028135717E-1,9.663840294E0,1.262840986E0
3.808630834E0,8.844070137E-2,9.678213120E0,1.272422910E0
3.810635365E0,6.927686930E-2,9.673421860E0,1.243677139E0
3.812639896E0,6.927686930E-2,9.683003426E0,1.243677139E0
3.814644427E0,5.969495699E-2,9.692585945E0,1.248468041E0
3.816648959E0,4.053112864E-2,9.692585945E0,1.243677139E0
3.818653490E0,3.094921261E-2,9.702167511E0,1.243677139E0
3.820658021E0,2.615825646E-2,9.716540337E0,1.248468041E0
3.822662552E0,1.657634228E-2,9.716540337E0,1.253259063E0
3.824667084E0,2.203471959E-3,9.726122856E0,1.248468041E0
3.826671615E0,-2.175131440E-2,9.750077248E0,1.258049965E0
3.828676146E0,-2.175131440E-2,9.759658813E0,1.243677139E0
3.830680677E0,-2.175131440E-2,9.754868507E0,1.258049965E0
3.832685209E0,-3.133323044E-2,9.778822899E0,1.258049965E0
3.834689740E0,-3.612418473E-2,9.788404465E0,1.253259063E0
3.836694271E0,-3.133323044E-2,9.788404465E0,1.277213812E0
3.838698802E0,-5.049705505E-2,9.793195724E0,1.277213812E0
3.840703334E0,-2.654226869E-2,9.797986984E0,1.258049965E0
3.842707865E0,-3.133323044E-2,9.836314201E0,1.267631888E0
3.844712396E0,-5.049705505E-2,9.826732635E0,1.296377659E0
3.846716927E0,-4.091514647E-2,9.826732635E0,1.291586637E0
3.848721459E0,-5.049705505E-2,9.845896721E0,1.296377659E0
3.850725990E0,-4.570610076E-2,9.836314201E0,1.315541506E0
3.852730521E0,-3.612418473E-2,9.845896721E0,1.301168561E0
3.854735052E0,-4.570610076E-2,9.850687027E0,1.305959582E0
3.856739584E0,-3.133323044E-2,9.836314201E0,1.329914331E0
3.858744115E0,-3.612418473E-2,9.836314201E0,1.329914331E0
3.860748646E0,-2.175131440E-2,9.836314201E0,1.334705353E0
3.862753177E0,-2.175131440E-2,9.826732635E0,1.344287276E0
3.864757709E0,-1.696036011E-2,9.812359810E0,1.353869081E0
3.866762240E0,-1.216939837E-2,9.817150116E0,1.344287276E0
3.868766771E0,-1.216939837E-2,9.793195724E0,1.353869081E0
3.870771302E0,6.994426250E-3,9.783614159E0,1.334705353E0
3.872775834E0,6.994426250E-3,9.774031639E0,1.358660102E0
3.874780365E0,3.574017063E-2,9.774031639E0,1.353869081E0
3.876784896E0,2.136730030E-2,9.774031639E0,1.353869081E0
3.878789427E0,2.615825646E-2,9.764450073E0,1.339496255E0
3.880793959E0,2.615825646E-2,9.764450073E0,1.329914331E0
3.882798490E0,3.094921261E-2,9.745285988E0,1.349078178E0
3.884803021E0,4.053112864E-2,9.750077248E0,1.334705353E0
3.886807552E0,2.615825646E-2,9.706958771E0,1.349078178E0
3.888812084E0,3.094921261E-2,9.706958771E0,1.320332408E0
3.890816615E0,3.094921261E-2,9.673421860E0,1.315541506E0
3.892821146E0,5.490399897E-2,9.678213120E0,1.315541506E0
3.894825677E0,4.053112864E-2,9.668630600E0,1.315541506E0
3.896830209E0,5.011304095E-2,9.644676208E0,1.310750484E0
3.898834740E0,3.094921261E-2,9.639884949E0,1.320332408E0
3.900839271E0,2.615825646E-2,9.615930557E0,1.301168561E0
3.902843802E0,1.657634228E-2,9.630303383E0,1.301168561E0
3.904848334E0,-7.378444076E-3,9.606348038E0,1.282004833E0
3.906852865E0,-7.378444076E-3,9.625512123E0,1.267631888E0
3.908857396E0,-7.378444076E-3,9.625512123E0,1.258049965E0
3.910861927E0,-1.696036011E-2,9.635094643E0,1.267631888E0
3.912866459E0,-3.133323044E-2,9.654257774E0,1.243677139E0
3.914870990E0,-3.133323044E-2,9.683003426E0,1.253259063E0
3.916875521E0,-2.654226869E-2,9.692585945E0,1.229304194E0
3.918880052E0,-3.133323044E-2,9.692585945E0,1.229304194E0
3.920884584E0,-4.570610076E-2,9.687794685E0,1.219722271E0
3.922889115E0,-3.612418473E-2,9.716540337E0,1.214931369E0
3.924893646E0,-4.570610076E-2,9.721331596E0,1.219722271E0
3.926898177E0,-4.091514647E-2,9.711749077E0,1.229304194E0
3.928902709E0,-3.612418473E-2,9.726122856E0,1.234095216E0
3.930907240E0,-7.378444076E-3,9.716540337E0,1.238886118E0
3.932911771E0,-7.378444076E-3,9.721331596E0,1.243677139E0
3.934916302E0,1.657634228E-2,9.706958771E0,1.258049965E0
3.936920834E0,1.178538427E-2,9.711749077E0,1.267631888E0
3.938925365E0,1.657634228E-2,9.702167511E0,1.258049965E0
3.940929896E0,3.094921261E-2,9.702167511E0,1.262840986E0
3.942934427E0,4.532208294E-2,9.721331596E0,1.267631888E0
3.944938959E0,4.532208294E-2,9.702167511E0,1.258049965E0
3.946943490E0,6.927686930E-2,9.706958771E0,1.267631888E0
3.948948021E0,6.927686930E-2,9.697376251E0,1.282004833E0
3.950952552E0,7.406783104E-2,9.706958771E0,1.272422910E0
3.952957084E0,6.927686930E-2,9.706958771E0,1.267631888E0
3.954961615E0,6.927686930E-2,9.711749077E0,1.282004833E0
3.956966146E0,8.844070137E-2,9.721331596E0,1.277213812E0
3.958970677E0,8.844070137E-2,9.711749077E0,1.272422910E0
3.960975209E0,8.844070137E-2,9.711749077E0,1.277213812E0
3.962979740E0,9.323165566E-2,9.721331596E0,1.272422910E0
3.964984271E0,9.802260995E-2,9.730913162E0,1.272422910E0
3.966988802E0,1.028135717E-1,9.730913162E0,1.253259063E0
3.968993334E0,9.802260995E-2,9.735704422E0,1.234095216E0
3.970997865E0,9.802260995E-2,9.721331596E0,1.243677139E0
3.973002396E0,9.802260995E-2,9.716540337E0,1.234095216E0
3.975006927E0,1.028135717E-1,9.721331596E0,1.224513292E0
3.977011459E0,9.323165566E-2,9.706958771E0,1.229304194E0
3.979015990E0,7.406783104E-2,9.711749077E0,1.229304194E0
3.981020521E0,7.406783104E-2,9.730913162E0,1.224513292E0
3.983025052E0,6.927686930E-2,9.726122856E0,1.219722271E0
3.985029584E0,6.448591501E-2,9.726122856E0,1.214931369E0
3.987034115E0,5.490399897E-2,9.735704422E0,1.200558424E0
3.989038646E0,4.532208294E-2,9.740495682E0,1.190976620E0
3.991043177E0,2.615825646E-2,9.735704422E0,1.205349445E0
3.993047709E0,4.532208294E-2,9.759658813E0,1.200558424E0
3.995052240E0,2.615825646E-2,9.774031639E0,1.205349445E0
3.997056771E0,2.615825646E-2,9.778822899E0,1.214931369E0
3.999061302E0,1.178538427E-2,9.778822899E0,1.219722271E0
4.001065834E0,2.203471959E-3,9.764450073E0,1.219722271E0
4.003070365E0,2.203471959E-3,9.778822899E0,1.224513292E0
4.005074896E0,2.136730030E-2,9.783614159E0,1.243677139E0
4.007079427E0,-2.587486058E-3,9.783614159E0,1.238886118E0
4.009083959E0,2.203471959E-3,9.793195724E0,1.234095216E0
4.011088490E0,-2.587486058E-3,9.769241333E0,1.262840986E0
4.013093021E0,-7.378444076E-3,9.793195724E0,1.267631888E0
4.015097552E0,2.203471959E-3,9.774031639E0,1.267631888E0
4.017102136E0,1.657634228E-2,9.783614159E0,1.262840986E0
4.019106719E0,1.178538427E-2,9.797986984E0,1.282004833E0
4.021111302E0,-2.587486058E-3,9.802777290E0,1.267631888E0
4.023115886E0,1.657634228E-2,9.778822899E0,1.277213812E0
4.025120469E0,1.657634228E-2,9.783614159E0,1.286795735E0
4.027125052E0,2.203471959E-3,9.783614159E0,1.286795735E0
4.029129636E0,1.657634228E-2,9.774031639E0,1.282004833E0
4.031134219E0,1.657634228E-2,9.754868507E0,1.286795735E0
4.033138802E0,1.657634228E-2,9.764450073E0,1.262840986E0
4.035143386E0,3.574017063E-2,9.764450073E0,1.267631888E0
4.037147969E0,4.053112864E-2,9.764450073E0,1.272422910E0
4.039152552E0,5.969495699E-2,9.754868507E0,1.272422910E0
4.041157136E0,6.448591501E-2,9.759658813E0,1.262840986E0
4.043161719E0,5.490399897E-2,9.754868507E0,1.243677139E0
4.045166302E0,5.969495699E-2,9.797986984E0,1.243677139E0
4.047170886E0,7.406783104E-2,9.788404465E0,1.224513292E0
4.049175469E0,9.802260995E-2,9.807568550E0,1.214931369E0
4.051180052E0,8.844070137E-2,9.788404465E0,1.190976620E0
4.053184636E0,8.844070137E-2,9.812359810E0,1.195767522E0
4.055189219E0,8.844070137E-2,9.812359810E0,1.181394696E0
4.057193802E0,9.802260995E-2,9.836314201E0,1.190976620E0
4.059198386E0,8.844070137E-2,9.845896721E0,1.167021751E0
4.061202969E0,1.028135717E-1,9.860269547E0,1.152648926E0
4.063207552E0,8.844070137E-2,9.879432678E0,1.133485079E0
4.065212136E0,1.171864420E-1,9.908178329E0,1.123903155E0
4.067216719E0,9.802260995E-2,9.898596764E0,1.147857904E0
4.069221302E0,1.028135717E-1,9.898596764E0,1.138275981E0
4.071225886E0,1.076045260E-1,9.917760849E0,1.138275981E0
4.073230469E0,1.028135717E-1,9.927342415E0,1.147857904E0
4.075235052E0,1.028135717E-1,9.922552109E0,1.138275981E0
4.077239584E0,1.076045260E-1,9.941715240E0,1.157439828E0
4.079244115E0,1.028135717E-1,9.912969589E0,1.147857904E0
4.081248646E0,1.076045260E-1,9.908178329E0,1.157439828E0
4.083253177E0,1.123954803E-1,9.912969589E0,1.167021751E0
4.085257709E0,1.028135717E-1,9.908178329E0,1.171812773E0
4.087262240E0,1.076045260E-1,9.893805504E0,1.176603675E0
4.089266771E0,1.123954803E-1,9.874642372E0,1.210140347E0
4.091271302E0,8.364973962E-2,9.865059853E0,1.205349445E0
4.093275834E0,7.885878533E-2,9.845896721E0,1.200558424E0
4.095280365E0,8.844070137E-2,9.841105461E0,1.234095216E0
4.097284896E0,8.844070137E-2,9.845896721E0,1.238886118E0
4.099289427E0,7.406783104E-2,9.850687027E0,1.238886118E0
4.101293959E0,6.448591501E-2,9.865059853E0,1.258049965E0
4.103298490E0,5.011304095E-2,9.865059853E0,1.262840986E0
4.105303021E0,4.532208294E-2,9.860269547E0,1.253259063E0
4.107307552E0,5.011304095E-2,9.874642372E0,1.282004833E0
4.109312084E0,4.532208294E-2,9.869851112E0,1.291586637E0
4.111316615E0,3.574017063E-2,9.898596764E0,1.291586637E0
4.113321146E0,4.532208294E-2,9.898596764E0,1.315541506E0
4.115325677E0,3.094921261E-2,9.893805504E0,1.320332408E0
4.117330209E0,4.053112864E-2,9.922552109E0,1.320332408E0
4.119334740E0,3.574017063E-2,9.908178329E0,1.310750484E0
4.121339271E0,2.615825646E-2,9.917760849E0,1.320332408E0
4.123343802E0,2.615825646E-2,9.908178329E0,1.349078178E0
4.125348334E0,2.615825646E-2,9.917760849E0,1.334705353E0
4.127352865E0,2.136730030E-2,9.932133675E0,1.344287276E0
4.129357396E0,4.053112864E-2,9.927342415E0,1.353869081E0
4.131361927E0,2.615825646E-2,9.922552109E0,1.358660102E0
4.133366459E0,3.574017063E-2,9.946506500E0,1.363451004E0
4.135370990E0,4.053112864E-2,9.951297760E0,1.368242025E0
4.137375521E0,5.011304095E-2,9.960879326E0,1.363451004E0
4.139380052E0,5.969495699E-2,9.941715240E0,1.368242025E0
4.141384584E0,6.448591501E-2,9.956088066E0,1.368242025E0
4.143389115E0,6.927686930E-2,9.951297760E0,1.368242025E0
4.145393646E0,6.927686930E-2,9.956088066E0,1.377823949E0
4.147398177E0,6.448591501E-2,9.956088066E0,1.368242025E0
4.149402709E0,8.364973962E-2,9.956088066E0,1.387405872E0
4.151407240E0,9.802260995E-2,9.951297760E0,1.373032928E0
4.153411771E0,9.802260995E-2,9.980043411E0,1.377823949E0
4.155416302E0,1.171864420E-1,9.960879326E0,1.377823949E0
4.157420834E0,1.411412358E-1,9.946506500E0,1.368242025E0
