"Time (s)","Gyroscope x (rad/s)","Gyroscope y (rad/s)","Gyroscope z (rad/s)"
2.003281300E-2,1.733716391E-2,4.432828352E-2,3.016027622E-3
2.203953200E-2,1.520663686E-2,3.793669865E-2,8.855005726E-4
2.404692700E-2,1.201084629E-2,4.113249108E-2,1.950764097E-3
2.605484400E-2,1.094558276E-2,4.006722942E-2,1.950764097E-3
2.806312500E-2,6.684528664E-3,4.326301441E-2,6.211817730E-3
3.007161500E-2,7.749792188E-3,4.113249108E-2,8.855005726E-4
3.208010400E-2,2.423474565E-3,3.793669865E-2,8.855005726E-4
3.408588600E-2,5.619265139E-3,3.474090621E-2,3.016027622E-3
3.609041700E-2,4.554001614E-3,3.261038288E-2,1.950764097E-3
3.809494800E-2,2.423474565E-3,2.834932506E-2,1.950764097E-3
4.009947900E-2,-7.723160088E-4,3.047985025E-2,8.855005726E-4
4.210401100E-2,2.929475158E-4,2.621879801E-2,3.016027622E-3
4.410854200E-2,-1.837579533E-3,2.089248039E-2,4.081291147E-3
4.611307300E-2,-3.968106583E-3,1.769668981E-2,8.855005726E-4
4.811760400E-2,-5.033370107E-3,1.982721686E-2,1.950764097E-3
5.012213600E-2,-5.033370107E-3,1.130510960E-2,3.016027622E-3
5.212666700E-2,-6.098633632E-3,1.023984607E-2,1.950764097E-3
5.413119800E-2,-3.968106583E-3,4.913528450E-3,3.016027622E-3
5.613572900E-2,-6.098633632E-3,6.524741184E-4,5.146554206E-3
5.814026100E-2,-6.098633632E-3,-1.478052931E-3,4.081291147E-3
6.014479200E-2,-5.033370107E-3,-1.106542442E-2,-1.797629520E-4
6.214932300E-2,-5.033370107E-3,-1.106542442E-2,6.211817730E-3
6.415385400E-2,-7.163897157E-3,-1.532647852E-2,6.211817730E-3
6.615838600E-2,-8.229160681E-3,-1.958753355E-2,5.146554206E-3
6.816291700E-2,-7.163897157E-3,-2.278332412E-2,6.211817730E-3
7.016744800E-2,-2.902843058E-3,-2.597911470E-2,6.211817730E-3
7.217197900E-2,-6.098633632E-3,-3.237069398E-2,1.153813489E-2
7.417651100E-2,-2.902843058E-3,-3.663174808E-2,9.407607839E-3
7.618104200E-2,-3.968106583E-3,-3.982753679E-2,9.407607839E-3
7.818557300E-2,-1.837579533E-3,-3.982753679E-2,1.792971604E-2
8.019010400E-2,-7.723160088E-4,-4.408859089E-2,1.473392546E-2
8.219463600E-2,-1.837579533E-3,-4.728438333E-2,1.686445251E-2
8.419916700E-2,-1.837579533E-3,-4.941490665E-2,1.686445251E-2
8.620369800E-2,-5.033370107E-3,-5.154543743E-2,2.432129718E-2
8.820822900E-2,-2.902843058E-3,-4.941490665E-2,2.538656071E-2
9.021276100E-2,-5.033370107E-3,-4.728438333E-2,3.071287833E-2
9.221729200E-2,-7.163897157E-3,-4.515385255E-2,2.751708776E-2
9.422182300E-2,-7.163897157E-3,-4.195806757E-2,2.964761667E-2
9.622635400E-2,-1.837579533E-3,-3.982753679E-2,3.177814558E-2
9.823088600E-2,-2.902843058E-3,-3.876227513E-2,3.177814558E-2
1.002354170E-1,-6.098633632E-3,-3.450122103E-2,3.390867263E-2
1.022399480E-1,-7.723160088E-4,-3.556648269E-2,3.071287833E-2
1.042444790E-1,-1.837579533E-3,-3.556648269E-2,3.497393429E-2
1.062490110E-1,-7.723160088E-4,-3.663174808E-2,3.816972673E-2
1.082535420E-1,-2.902843058E-3,-3.130543232E-2,3.177814558E-2
1.102580730E-1,2.423474565E-3,-2.917490527E-2,3.284341097E-2
1.122626040E-1,5.619265139E-3,-3.130543232E-2,2.964761667E-2
1.142671360E-1,4.554001614E-3,-3.237069398E-2,3.071287833E-2
1.162716670E-1,7.749792188E-3,-2.917490527E-2,2.858235128E-2
1.182761980E-1,7.749792188E-3,-2.810964175E-2,3.177814558E-2
1.202807290E-1,1.094558276E-2,-2.810964175E-2,2.858235128E-2
1.222852610E-1,1.307610981E-2,-2.917490527E-2,3.177814558E-2
1.242897920E-1,1.201084629E-2,-2.917490527E-2,3.071287833E-2
1.262943230E-1,2.053295448E-2,-2.704437822E-2,3.284341097E-2
1.282988540E-1,1.946769096E-2,-2.810964175E-2,3.603919968E-2
1.303033860E-1,2.479400672E-2,-3.024016879E-2,3.603919968E-2
1.323079170E-1,2.372874506E-2,-3.024016879E-2,3.177814558E-2
1.343124480E-1,2.585927211E-2,-2.917490527E-2,3.603919968E-2
1.363169790E-1,2.479400672E-2,-3.130543232E-2,4.243078083E-2
1.383215110E-1,2.372874506E-2,-3.130543232E-2,4.136551917E-2
1.403260420E-1,3.012032248E-2,-2.810964175E-2,4.562657326E-2
1.423305730E-1,3.225085139E-2,-2.810964175E-2,4.136551917E-2
1.443351040E-1,3.225085139E-2,-2.597911470E-2,4.456130788E-2
1.463396360E-1,3.864242882E-2,-2.491385117E-2,4.775709659E-2
1.483441670E-1,3.757716715E-2,-2.704437822E-2,4.349604249E-2
1.503486980E-1,4.077295959E-2,-2.384858765E-2,4.243078083E-2
1.523532290E-1,4.077295959E-2,-2.491385117E-2,4.243078083E-2
1.543577610E-1,4.183822125E-2,-2.171806060E-2,4.243078083E-2
1.563622920E-1,3.864242882E-2,-2.171806060E-2,4.243078083E-2
1.583668230E-1,4.290348291E-2,-1.639174297E-2,4.030025378E-2
1.603713540E-1,4.609927535E-2,-1.639174297E-2,3.710446507E-2
1.623758860E-1,4.183822125E-2,-1.958753355E-2,3.710446507E-2
1.643804170E-1,4.396875203E-2,-1.426121499E-2,3.390867263E-2
1.663849480E-1,4.609927535E-2,-1.319595147E-2,3.710446507E-2
1.683894790E-1,4.822980613E-2,-1.319595147E-2,3.390867263E-2
1.703940110E-1,4.716453701E-2,-8.934897371E-3,3.071287833E-2
1.723985420E-1,4.609927535E-2,-1.745700650E-2,3.177814558E-2
1.744030730E-1,4.396875203E-2,-1.213068794E-2,2.858235128E-2
1.764076040E-1,4.290348291E-2,-1.426121499E-2,2.538656071E-2
1.784121360E-1,4.609927535E-2,-1.958753355E-2,2.858235128E-2
1.804166670E-1,4.929506779E-2,-1.958753355E-2,2.858235128E-2
1.824211980E-1,4.822980613E-2,-1.532647852E-2,2.645182423E-2
1.844257290E-1,4.183822125E-2,-1.852227002E-2,2.751708776E-2
1.864302610E-1,4.396875203E-2,-1.532647852E-2,2.858235128E-2
1.884347920E-1,4.290348291E-2,-2.065279707E-2,2.858235128E-2
1.904393230E-1,4.290348291E-2,-2.065279707E-2,2.751708776E-2
1.924438540E-1,4.503401369E-2,-2.278332412E-2,3.071287833E-2
1.944483860E-1,4.183822125E-2,-2.065279707E-2,2.858235128E-2
1.964529170E-1,4.183822125E-2,-1.852227002E-2,2.751708776E-2
1.984574480E-1,3.864242882E-2,-2.065279707E-2,2.964761667E-2
2.004619790E-1,3.757716715E-2,-1.852227002E-2,3.284341097E-2
2.024665110E-1,3.970769793E-2,-1.745700650E-2,2.964761667E-2
2.044710420E-1,3.757716715E-2,-2.065279707E-2,2.645182423E-2
2.064755730E-1,3.757716715E-2,-2.065279707E-2,3.071287833E-2
2.084801040E-1,3.438137472E-2,-1.958753355E-2,3.390867263E-2
2.104846360E-1,3.864242882E-2,-1.852227002E-2,3.390867263E-2
2.124891670E-1,3.225085139E-2,-2.065279707E-2,3.177814558E-2
2.144936980E-1,3.438137472E-2,-1.958753355E-2,2.858235128E-2
2.164982290E-1,3.225085139E-2,-2.597911470E-2,3.071287833E-2
2.185027610E-1,3.118558787E-2,-2.491385117E-2,3.071287833E-2
2.205072920E-1,3.331611305E-2,-2.065279707E-2,2.964761667E-2
2.225118230E-1,2.798979916E-2,-2.384858765E-2,3.710446507E-2
2.245163540E-1,3.225085139E-2,-2.384858765E-2,3.816972673E-2
2.265208860E-1,2.692453377E-2,-2.597911470E-2,4.243078083E-2
2.285254170E-1,2.798979916E-2,-2.171806060E-2,4.243078083E-2
2.305299480E-1,2.585927211E-2,-2.597911470E-2,4.349604249E-2
2.325344790E-1,2.585927211E-2,-2.171806060E-2,4.562657326E-2
2.345390110E-1,2.585927211E-2,-1.745700650E-2,4.882236198E-2
2.365435420E-1,2.798979916E-2,-1.852227002E-2,4.669183493E-2
2.385480730E-1,2.479400672E-2,-1.852227002E-2,4.669183493E-2
2.405526040E-1,2.479400672E-2,-1.532647852E-2,4.669183493E-2
2.425571360E-1,2.798979916E-2,-1.852227002E-2,4.775709659E-2
2.445616670E-1,2.159821801E-2,-1.319595147E-2,3.923498839E-2
2.465661980E-1,2.585927211E-2,-1.639174297E-2,4.030025378E-2
2.485707290E-1,2.479400672E-2,-1.639174297E-2,4.030025378E-2
2.505752610E-1,2.053295448E-2,-1.319595147E-2,4.243078083E-2
2.525797920E-1,2.053295448E-2,-1.426121499E-2,4.136551917E-2
2.545843230E-1,1.627190039E-2,-1.532647852E-2,4.030025378E-2
2.565888540E-1,2.159821801E-2,-1.639174297E-2,3.816972673E-2
2.585933860E-1,1.733716391E-2,-1.532647852E-2,3.603919968E-2
2.605979170E-1,1.733716391E-2,-1.426121499E-2,3.816972673E-2
2.626024480E-1,1.946769096E-2,-1.426121499E-2,3.603919968E-2
2.646069790E-1,1.946769096E-2,-1.319595147E-2,3.710446507E-2
2.666115110E-1,1.520663686E-2,-1.532647852E-2,3.603919968E-2
2.686160420E-1,1.627190039E-2,-1.745700650E-2,3.710446507E-2
2.706205730E-1,1.840242743E-2,-1.213068794E-2,3.390867263E-2
2.726251040E-1,2.159821801E-2,-1.426121499E-2,3.603919968E-2
2.746296360E-1,1.520663686E-2,-1.213068794E-2,3.710446507E-2
2.766341670E-1,1.414137334E-2,-1.532647852E-2,3.710446507E-2
2.786386980E-1,1.733716391E-2,-1.000016090E-2,3.284341097E-2
2.806432290E-1,2.266348153E-2,-1.426121499E-2,3.923498839E-2
2.826477610E-1,1.946769096E-2,-1.532647852E-2,3.816972673E-2
2.846522920E-1,2.266348153E-2,-1.000016090E-2,3.816972673E-2
2.866568230E-1,2.266348153E-2,-1.745700650E-2,3.923498839E-2
2.886613540E-1,2.479400672E-2,-1.532647852E-2,4.030025378E-2
2.906658860E-1,2.692453377E-2,-1.106542442E-2,3.497393429E-2
2.926704170E-1,2.798979916E-2,-1.319595147E-2,3.923498839E-2
2.946749480E-1,3.012032248E-2,-6.804370321E-3,3.071287833E-2
2.966794790E-1,3.118558787E-2,-8.934897371E-3,3.603919968E-2
2.986840110E-1,3.757716715E-2,-6.804370321E-3,3.603919968E-2
3.006885420E-1,3.118558787E-2,-4.673843272E-3,3.497393429E-2
3.026930730E-1,3.864242882E-2,-2.543316456E-3,3.284341097E-2
3.046976040E-1,4.077295959E-2,-3.608579980E-3,3.071287833E-2
3.067021360E-1,4.183822125E-2,-1.478052931E-3,3.071287833E-2
3.087066670E-1,4.716453701E-2,-5.739106797E-3,3.284341097E-2
3.107111980E-1,4.716453701E-2,5.978791974E-3,3.071287833E-2
3.127157290E-1,4.716453701E-2,7.044055499E-3,2.964761667E-2
3.147202610E-1,4.609927535E-2,9.174582548E-3,3.071287833E-2
3.167247920E-1,4.929506779E-2,1.237037312E-2,2.645182423E-2
3.187293230E-1,4.929506779E-2,9.174582548E-3,2.538656071E-2
3.207338540E-1,4.822980613E-2,1.556616370E-2,2.538656071E-2
3.227383860E-1,4.929506779E-2,1.556616370E-2,2.645182423E-2
3.247429170E-1,4.503401369E-2,1.769668981E-2,2.325603366E-2
3.267474480E-1,4.716453701E-2,1.450090017E-2,2.219077013E-2
3.287519790E-1,4.716453701E-2,1.663142629E-2,1.579918899E-2
3.307565110E-1,4.929506779E-2,2.089248039E-2,1.473392546E-2
3.327610420E-1,4.929506779E-2,1.769668981E-2,1.366866194E-2
3.347655730E-1,4.822980613E-2,2.089248039E-2,8.342344314E-3
3.367701040E-1,4.716453701E-2,2.408827096E-2,4.081291147E-3
3.387746360E-1,4.929506779E-2,1.982721686E-2,-1.245026477E-3
3.407791670E-1,4.822980613E-2,2.728406340E-2,-4.440817051E-3
3.427836980E-1,4.822980613E-2,2.941458672E-2,-1.083239913E-2
3.447882290E-1,4.822980613E-2,2.621879801E-2,-1.722398028E-2
3.467927610E-1,4.929506779E-2,2.621879801E-2,-1.615871675E-2
3.487972920E-1,4.716453701E-2,2.728406340E-2,-2.148503438E-2
3.508018230E-1,5.675191432E-2,2.408827096E-2,-2.681135200E-2
3.528063540E-1,4.929506779E-2,2.302300930E-2,-2.681135200E-2
3.548108860E-1,5.036032945E-2,2.302300930E-2,-3.426819295E-2
3.568154170E-1,5.142559111E-2,1.876195334E-2,-3.213766962E-2
3.588199480E-1,5.036032945E-2,1.769668981E-2,-3.533345461E-2
3.608244790E-1,5.462138355E-2,2.195774391E-2,-4.065977409E-2
3.628290110E-1,5.249086022E-2,1.982721686E-2,-4.385556281E-2
3.648335420E-1,4.822980613E-2,1.556616370E-2,-4.172503948E-2
3.668380730E-1,5.142559111E-2,1.769668981E-2,-5.024714768E-2
3.688426040E-1,4.929506779E-2,1.343563665E-2,-4.918188229E-2
3.708471360E-1,5.355612189E-2,1.450090017E-2,-5.450820178E-2
3.728516670E-1,4.822980613E-2,1.130510960E-2,-5.131240934E-2
3.748561980E-1,5.036032945E-2,4.913528450E-3,-5.557346344E-2
3.768607290E-1,5.142559111E-2,-4.127894063E-4,-6.089977920E-2
3.788652610E-1,5.355612189E-2,-2.543316456E-3,-5.876925588E-2
3.808697920E-1,5.994769931E-2,-8.934897371E-3,-6.196504459E-2
3.828743230E-1,5.781717598E-2,-1.532647852E-2,-6.409557164E-2
3.848788540E-1,5.675191432E-2,-1.852227002E-2,-6.835663319E-2
3.868833860E-1,6.101296842E-2,-2.278332412E-2,-6.622610986E-2
3.888879170E-1,5.888243765E-2,-2.171806060E-2,-6.303030998E-2
3.908924480E-1,5.781717598E-2,-2.810964175E-2,-6.729137152E-2
3.928969790E-1,5.994769931E-2,-3.130543232E-2,-7.261768728E-2
3.949015110E-1,6.207823008E-2,-3.663174808E-2,-7.155242562E-2
3.969060420E-1,6.314349174E-2,-4.408859089E-2,-7.048715651E-2
3.989105730E-1,6.527401507E-2,-4.941490665E-2,-7.687874138E-2
4.009151040E-1,6.527401507E-2,-5.687175319E-2,-8.327032626E-2
4.029196360E-1,6.953507662E-2,-6.432860345E-2,-8.966190368E-2
4.049241670E-1,6.846980751E-2,-6.645912677E-2,-9.179243445E-2
4.069286980E-1,6.953507662E-2,-7.604650408E-2,-9.924927354E-2
4.089332290E-1,6.953507662E-2,-8.456861228E-2,-1.045755893E-1
4.109377610E-1,8.018770814E-2,-1.080044061E-1,-1.056408584E-1
4.129422920E-1,1.046887711E-1,-1.484844238E-1,-1.099019125E-1
4.149468230E-1,1.036235094E-1,-1.495496929E-1,-1.152282283E-1
4.169513540E-1,1.025582403E-1,-1.463539004E-1,-1.194892824E-1
4.189558860E-1,1.004277170E-1,-1.431581080E-1,-1.248155981E-1
4.209604170E-1,9.723192453E-2,-1.484844238E-1,-1.312071681E-1
4.229649480E-1,9.616666287E-2,-1.623328477E-1,-1.301418990E-1
4.249694790E-1,1.185372025E-1,-2.060086578E-1,-1.365334839E-1
4.269740110E-1,1.600824744E-1,-2.571412921E-1,-1.258808672E-1
4.289785420E-1,1.835182756E-1,-2.731202245E-1,-1.162934899E-1
4.309830730E-1,1.973666996E-1,-2.890991867E-1,-1.056408584E-1
4.329876040E-1,2.176067084E-1,-3.018823564E-1,-1.045755893E-1
4.349921360E-1,2.335856557E-1,-3.125349879E-1,-9.818401188E-2
4.369966670E-1,2.548909485E-1,-3.402318358E-1,-9.392295778E-2
4.390011980E-1,2.836530805E-1,-3.604718447E-1,-9.179243445E-2
4.410057290E-1,3.038930893E-1,-3.753855228E-1,-8.753137290E-2
4.430102610E-1,3.209373057E-1,-3.828423619E-1,-8.646611124E-2
4.450147920E-1,3.347857296E-1,-3.839076459E-1,-8.007453382E-2
4.470193230E-1,3.443730772E-1,-3.839076459E-1,-7.581347972E-2
4.490238540E-1,3.518299460E-1,-3.817771077E-1,-7.368294895E-2
4.510283860E-1,3.582215309E-1,-3.796465695E-1,-6.835663319E-2
4.530329170E-1,3.624825776E-1,-3.807118535E-1,-6.622610986E-2
4.550374480E-1,3.656783700E-1,-3.871034384E-1,-6.835663319E-2
4.570419790E-1,3.667436242E-1,-4.020171165E-1,-7.048715651E-2
4.590465110E-1,3.827225864E-1,-4.233223796E-1,-6.942189485E-2
4.610510420E-1,3.965710104E-1,-4.510192275E-1,-7.581347972E-2
4.630555730E-1,4.125499427E-1,-4.776508212E-1,-8.540084958E-2
4.650601040E-1,4.242678583E-1,-4.914992452E-1,-8.646611124E-2
4.670646360E-1,4.253331125E-1,-4.925645292E-1,-8.753137290E-2
4.690691670E-1,4.136152267E-1,-4.797813594E-1,-8.753137290E-2
4.710736980E-1,3.987015188E-1,-4.638023973E-1,-9.285769612E-2
4.730782290E-1,3.773962557E-1,-4.531497657E-1,-9.711875021E-2
4.750827610E-1,3.582215309E-1,-4.510192275E-1,-9.924927354E-2
4.770872920E-1,3.475688696E-1,-4.627371430E-1,-1.003145427E-1
4.790918230E-1,3.369162381E-1,-4.776508212E-1,-1.003145427E-1
4.810963540E-1,3.411773145E-1,-5.085434914E-1,-9.605348110E-2
4.831008860E-1,3.550257385E-1,-5.639371872E-1,-8.966190368E-2
4.851054170E-1,3.550257385E-1,-6.108087897E-1,-7.261768728E-2
4.871099480E-1,3.433078229E-1,-6.321140528E-1,-5.663872510E-2
4.891144790E-1,3.315899372E-1,-6.406361461E-1,-3.959450871E-2
4.911190110E-1,3.209373057E-1,-6.459624767E-1,-1.935450733E-2
4.931235420E-1,3.113499284E-1,-6.715288162E-1,1.950764097E-3
4.951280730E-1,3.188067675E-1,-7.237267494E-1,2.112550661E-2
4.971326040E-1,3.571562469E-1,-8.419709802E-1,4.030025378E-2
4.991371360E-1,3.933752179E-1,-9.612805247E-1,5.734447017E-2
5.011416670E-1,4.029625952E-1,-1.050762534E0,7.651920617E-2
5.031461980E-1,4.402468204E-1,-1.166876316E0,1.052813232E-1
5.051507290E-1,4.711394608E-1,-1.320274234E0,1.351087093E-1
5.071552610E-1,4.956404567E-1,-1.426800609E0,1.766539961E-1
5.091597920E-1,4.945752621E-1,-1.513086915E0,2.128729522E-1
5.111643230E-1,4.892489314E-1,-1.585524917E0,2.629403174E-1
5.131688540E-1,4.690089226E-1,-1.649440646E0,3.076813817E-1
5.151733860E-1,4.327899516E-1,-1.671811223E0,3.577487767E-1
5.171779170E-1,3.795267940E-1,-1.675006986E0,4.003593326E-1
5.191824480E-1,3.294593990E-1,-1.649440646E0,4.344477654E-1
5.211869790E-1,2.708699107E-1,-1.595112205E0,4.536224902E-1
5.231915110E-1,2.154761702E-1,-1.518413305E0,4.578835368E-1
5.251960420E-1,1.686045825E-1,-1.443844795E0,4.504266977E-1
5.272005730E-1,1.259940416E-1,-1.368211150E0,4.387088120E-1
5.292051040E-1,1.014929786E-1,-1.289381623E0,4.152730107E-1
5.312096360E-1,8.338350058E-2,-1.227596283E0,3.907719553E-1
5.332141670E-1,8.125296980E-2,-1.171137333E0,3.566835225E-1
5.352186980E-1,7.805718482E-2,-1.121069908E0,3.225950897E-1
5.372232290E-1,8.764455467E-2,-1.086981535E0,2.821150720E-1
5.392278130E-1,9.829718620E-2,-1.060349941E0,2.480266392E-1
5.412323960E-1,1.110803485E-1,-1.047566772E0,2.128729522E-1
5.432369790E-1,1.249287724E-1,-1.042240500E0,1.798497885E-1
5.452415630E-1,1.398424655E-1,-1.035848856E0,1.510876715E-1
5.472461460E-1,1.504950970E-1,-1.037979364E0,1.244560704E-1
5.492507290E-1,1.643435210E-1,-1.043305755E0,9.569394588E-2
5.512553130E-1,1.749961674E-1,-1.051827788E0,7.971499860E-2
5.532598960E-1,1.888445914E-1,-1.062480450E0,6.054025516E-2
5.552644790E-1,1.973666996E-1,-1.073133111E0,4.349604249E-2
5.572690630E-1,2.048235387E-1,-1.089112043E0,2.858235128E-2
5.592736460E-1,2.080193311E-1,-1.112547874E0,1.899497956E-2
5.612782290E-1,2.154761702E-1,-1.131722569E0,8.342344314E-3
5.632828130E-1,2.250635475E-1,-1.150897384E0,-1.797629520E-4
5.652873960E-1,2.261288166E-1,-1.173267841E0,-2.310290001E-3
5.672919790E-1,2.335856557E-1,-1.196703672E0,-2.310290001E-3
5.692965630E-1,2.389119714E-1,-1.213747859E0,-4.440817051E-3
5.713011460E-1,2.463688403E-1,-1.235053182E0,-2.310290001E-3
5.733057290E-1,2.527604401E-1,-1.252097368E0,-8.701871149E-3
5.753103130E-1,2.570214868E-1,-1.271272063E0,-1.245026477E-3
5.773148960E-1,2.602172792E-1,-1.287251115E0,8.855005726E-4
5.793194790E-1,2.634130716E-1,-1.306425810E0,3.016027622E-3
5.813240630E-1,2.687393725E-1,-1.324535251E0,-1.797629520E-4
5.833286460E-1,2.772614956E-1,-1.343710065E0,8.855005726E-4
5.853332290E-1,2.804572880E-1,-1.353297472E0,-2.310290001E-3
5.873378130E-1,2.825877964E-1,-1.371406913E0,-6.571344100E-3
5.893423960E-1,2.911099195E-1,-1.392712116E0,-8.701871149E-3
5.913469790E-1,3.028278053E-1,-1.410821676E0,-1.615871675E-2
5.933515110E-1,3.081541359E-1,-1.427865863E0,-2.468082495E-2
5.953560420E-1,3.145457208E-1,-1.453432202E0,-3.320293501E-2
5.973605730E-1,3.198720217E-1,-1.467280626E0,-4.492082819E-2
5.993651040E-1,3.273288906E-1,-1.483259559E0,-5.557346344E-2
6.013696360E-1,3.369162381E-1,-1.505630136E0,-6.516083330E-2
6.033741670E-1,3.422425687E-1,-1.519478559E0,-7.474821806E-2
6.053786980E-1,3.518299460E-1,-1.533326983E0,-8.646611124E-2
6.073832290E-1,3.614173234E-1,-1.549305916E0,-9.498821944E-2
6.093877610E-1,3.720699549E-1,-1.567415357E0,-1.099019125E-1
6.113922920E-1,3.816573024E-1,-1.575937510E0,-1.184240207E-1
6.133968230E-1,3.912446797E-1,-1.591916442E0,-1.322724372E-1
6.154013540E-1,3.955057561E-1,-1.607895374E0,-1.407945305E-1
6.174058860E-1,4.040278494E-1,-1.617482781E0,-1.525124311E-1
6.194104170E-1,4.125499427E-1,-1.628135443E0,-1.716871858E-1
6.214149480E-1,4.189415276E-1,-1.646244884E0,-1.834050864E-1
6.234194790E-1,4.253331125E-1,-1.649440646E0,-1.940577179E-1
6.254240110E-1,4.327899516E-1,-1.659028053E0,-2.015145570E-1
6.274285420E-1,4.391815364E-1,-1.677137494E0,-2.153629810E-1
6.294330730E-1,4.434426129E-1,-1.688855410E0,-2.249503583E-1
6.314376040E-1,4.498341680E-1,-1.700573325E0,-2.345377356E-1
6.334421360E-1,4.551604986E-1,-1.718682766E0,-2.451903671E-1
6.354466670E-1,4.551604986E-1,-1.739988089E0,-2.537124753E-1
6.374511980E-1,4.572910368E-1,-1.764489174E0,-2.611693442E-1
6.394557290E-1,4.540952444E-1,-1.782598615E0,-2.654303908E-1
6.414602610E-1,4.562257528E-1,-1.807099700E0,-2.739524841E-1
6.434647920E-1,4.508994520E-1,-1.830535531E0,-2.803440690E-1
6.454693230E-1,4.572910368E-1,-1.859297633E0,-2.867356539E-1
6.474738540E-1,4.530299604E-1,-1.882733345E0,-2.867356539E-1
6.494783860E-1,4.477036595E-1,-1.907234430E0,-2.920619845E-1
6.514829170E-1,4.477036595E-1,-1.939192295E0,-2.963230312E-1
6.534874480E-1,4.466383755E-1,-1.962628126E0,-2.973882854E-1
6.554919790E-1,4.445078671E-1,-1.996716619E0,-3.027146161E-1
6.574965110E-1,4.530299604E-1,-2.029739857E0,-3.080409169E-1
6.595010420E-1,4.466383755E-1,-2.056371450E0,-3.091062009E-1
6.615055730E-1,4.466383755E-1,-2.087264061E0,-3.133672476E-1
6.635101040E-1,4.519647062E-1,-2.125613689E0,-3.144325018E-1
6.655146360E-1,4.540952444E-1,-2.151180029E0,-3.218893409E-1
6.675191670E-1,4.572910368E-1,-2.182072639E0,-3.293462098E-1
6.695236980E-1,4.604868293E-1,-2.210834742E0,-3.336072564E-1
6.715282290E-1,4.711394608E-1,-2.228944063E0,-3.431946337E-1
6.735327610E-1,4.754005075E-1,-2.245988369E0,-3.495861888E-1
6.755372920E-1,4.807268083E-1,-2.265163183E0,-3.581083119E-1
6.775418230E-1,4.903141856E-1,-2.282207251E0,-3.719567358E-1
6.795463540E-1,4.999015331E-1,-2.296055794E0,-3.847399056E-1
6.815508860E-1,5.148152113E-1,-2.319491625E0,-3.921967447E-1
6.835554170E-1,5.212067962E-1,-2.347188473E0,-4.007188678E-1
6.855599480E-1,5.339899659E-1,-2.372754812E0,-4.188283384E-1
6.875644790E-1,5.425120592E-1,-2.394059896E0,-4.369378090E-1
6.895690110E-1,5.606215596E-1,-2.412169456E0,-4.507862329E-1
6.915735420E-1,5.670131445E-1,-2.428148508E0,-4.710262418E-1
6.935780730E-1,5.819268227E-1,-2.440931559E0,-4.923315048E-1
6.955826040E-1,5.989710689E-1,-2.443062067E0,-5.061799288E-1
6.975871360E-1,6.138847470E-1,-2.455845356E0,-5.242894292E-1
6.995916670E-1,6.319941878E-1,-2.453714848E0,-5.434641838E-1
7.015961980E-1,6.458426118E-1,-2.461171627E0,-5.615736246E-1
7.036007290E-1,6.607563496E-1,-2.461171627E0,-5.828788877E-1
7.056052610E-1,6.735395193E-1,-2.461171627E0,-6.009883881E-1
7.076097920E-1,6.916489601E-1,-2.457975864E0,-6.201631427E-1
7.096143230E-1,7.086932063E-1,-2.453714848E0,-6.435989141E-1
7.116188540E-1,7.193458080E-1,-2.450518847E0,-6.627736688E-1
7.136233860E-1,7.342594862E-1,-2.444127321E0,-6.851441860E-1
7.156279170E-1,7.513037324E-1,-2.430279016E0,-7.096452713E-1
7.176324480E-1,7.619563341E-1,-2.414299965E0,-7.330811024E-1
7.196369790E-1,7.736742496E-1,-2.403647423E0,-7.533210516E-1
7.216415110E-1,7.821963429E-1,-2.390864134E0,-7.767568827E-1
7.236460420E-1,7.939142585E-1,-2.391929388E0,-7.980621457E-1
7.256505730E-1,8.035016656E-1,-2.382342100E0,-8.172369003E-1
7.276551040E-1,8.152195215E-1,-2.370624304E0,-8.353463411E-1
7.296596360E-1,8.162847757E-1,-2.356775761E0,-8.534558415E-1
7.316641670E-1,8.226763606E-1,-2.349318981E0,-8.747611046E-1
7.336686980E-1,8.301331997E-1,-2.348253727E0,-8.832832575E-1
7.356732290E-1,8.343942761E-1,-2.342927456E0,-9.035232067E-1
7.376777610E-1,8.418511152E-1,-2.339731455E0,-9.163063765E-1
7.396822920E-1,8.471774459E-1,-2.321622133E0,-9.258937836E-1
7.416868230E-1,8.546342850E-1,-2.310969353E0,-9.408074617E-1
7.436913540E-1,8.599606156E-1,-2.304577827E0,-9.557211399E-1
7.456958860E-1,8.663522005E-1,-2.309904099E0,-9.642432332E-1
7.477004170E-1,8.706132174E-1,-2.318426371E0,-9.780916572E-1
7.497049480E-1,8.716785312E-1,-2.331209421E0,-9.898095727E-1
7.517094790E-1,8.823311329E-1,-2.340796709E0,-1.001527429E0
7.537140110E-1,8.823311329E-1,-2.352514744E0,-1.012180090E0
7.557185420E-1,8.876574636E-1,-2.369559050E0,-1.026028514E0
7.577230730E-1,8.887227178E-1,-2.380211592E0,-1.034550667E0
7.597276040E-1,8.983100653E-1,-2.390864134E0,-1.045203328E0
7.617321360E-1,8.908532262E-1,-2.399386406E0,-1.056921244E0
7.637366670E-1,8.972448111E-1,-2.412169456E0,-1.066508532E0
7.657411980E-1,8.983100653E-1,-2.419626236E0,-1.081422210E0
7.677457290E-1,8.993753791E-1,-2.427083254E0,-1.089944363E0
7.697502610E-1,9.047016501E-1,-2.434540033E0,-1.104858041E0
7.717547920E-1,9.089627266E-1,-2.445192575E0,-1.120836973E0
7.737593230E-1,9.196153879E-1,-2.446257830E0,-1.133620143E0
7.757638540E-1,9.196153879E-1,-2.437735796E0,-1.147468567E0
7.777683860E-1,9.270722270E-1,-2.431344271E0,-1.161316991E0
7.797729170E-1,9.323985577E-1,-2.427083254E0,-1.177295923E0
7.817774480E-1,9.345290661E-1,-2.413234711E0,-1.190079093E0
7.837819790E-1,9.441164136E-1,-2.396190643E0,-1.204992771E0
7.857865110E-1,9.547690749E-1,-2.373820066E0,-1.211384416E0
7.877910420E-1,9.622259140E-1,-2.355710506E0,-1.231624365E0
7.897955730E-1,9.600954056E-1,-2.354645252E0,-1.245472789E0
7.918001040E-1,9.739438295E-1,-2.355710506E0,-1.264647603E0
7.938046360E-1,9.750090837E-1,-2.356775761E0,-1.284887552E0
7.958091670E-1,9.792701006E-1,-2.350384235E0,-1.306192875E0
7.978136980E-1,9.792701006E-1,-2.348253727E0,-1.324302316E0
7.998182290E-1,9.835311770E-1,-2.337600946E0,-1.353064418E0
8.018227610E-1,9.803354144E-1,-2.330144167E0,-1.371173978E0
8.038272920E-1,9.760743380E-1,-2.322687387E0,-1.394609690E0
8.058318230E-1,9.718132615E-1,-2.309904099E0,-1.412719250E0
8.078363540E-1,9.686174989E-1,-2.296055794E0,-1.440416098E0
8.098408860E-1,9.622259140E-1,-2.273685217E0,-1.459590793E0
8.118454170E-1,9.515732527E-1,-2.256640911E0,-1.477700233E0
8.138499480E-1,9.430511594E-1,-2.231074572E0,-1.499005556E0
8.158544790E-1,9.323985577E-1,-2.211899996E0,-1.524571896E0
8.178590110E-1,9.238764048E-1,-2.186333656E0,-1.546942353E0
8.198635420E-1,9.153543115E-1,-2.166093588E0,-1.560790777E0
8.218680730E-1,9.025711417E-1,-2.144788265E0,-1.583161354E0
8.238726040E-1,8.876574636E-1,-2.127744198E0,-1.593814015E0
8.258771360E-1,8.812658787E-1,-2.109634638E0,-1.608727694E0
8.278816670E-1,8.684827089E-1,-2.100047350E0,-1.620445609E0
8.298861980E-1,8.556995392E-1,-2.089394569E0,-1.621510863E0
8.318907290E-1,8.439816833E-1,-2.063828230E0,-1.632163525E0
8.338952610E-1,8.375900984E-1,-2.047849417E0,-1.638555050E0
8.358997920E-1,8.333290219E-1,-2.027609348E0,-1.640685558E0
8.379043230E-1,8.248069286E-1,-2.008434772E0,-1.632163525E0
8.399088540E-1,8.226763606E-1,-1.987129211E0,-1.627902389E0
8.419133860E-1,8.205458522E-1,-1.979672313E0,-1.614053965E0
8.439179170E-1,8.098932505E-1,-1.988194466E0,-1.604466677E0
8.459224480E-1,7.896532416E-1,-2.009500027E0,-1.595944524E0
8.479269790E-1,7.779353261E-1,-2.032935619E0,-1.589552999E0
8.499315110E-1,7.630216479E-1,-2.048914671E0,-1.586357117E0
8.519360420E-1,7.523689866E-1,-2.069154739E0,-1.582096100E0
8.539405730E-1,7.427816391E-1,-2.085133553E0,-1.576769829E0
8.559451040E-1,7.374553084E-1,-2.101112604E0,-1.578900337E0
8.579496360E-1,7.299984694E-1,-2.101112604E0,-1.570378184E0
8.599541670E-1,7.289332151E-1,-2.102177858E0,-1.569312930E0
8.619586980E-1,7.193458080E-1,-2.102177858E0,-1.563986659E0
8.639632290E-1,7.172152996E-1,-2.092590332E0,-1.569312930E0
8.659677610E-1,7.097584605E-1,-2.093655586E0,-1.569312930E0
8.679722920E-1,7.023016214E-1,-2.089394569E0,-1.567182422E0
8.699768230E-1,7.023016214E-1,-2.086198807E0,-1.576769829E0
8.719813540E-1,7.054973841E-1,-2.073415756E0,-1.573573947E0
8.739858860E-1,7.033668756E-1,-2.049979925E0,-1.579965591E0
8.759904170E-1,6.980405450E-1,-2.034000874E0,-1.581030846E0
8.779949480E-1,6.959100366E-1,-2.024413586E0,-1.590618253E0
8.799994790E-1,6.927142143E-1,-2.007369280E0,-1.600205541E0
8.820040110E-1,6.873879433E-1,-1.994586110E0,-1.609792948E0
8.840085420E-1,6.799310446E-1,-1.980737686E0,-1.620445609E0
8.860130730E-1,6.820616126E-1,-1.967954516E0,-1.631098270E0
8.880176040E-1,6.788657904E-1,-1.948779702E0,-1.641750813E0
8.900221360E-1,6.788657904E-1,-1.939192295E0,-1.653468728E0
8.920266670E-1,6.746047735E-1,-1.929605007E0,-1.666251898E0
8.940311980E-1,6.735395193E-1,-1.921082854E0,-1.680100322E0
8.960357290E-1,6.767352819E-1,-1.909364939E0,-1.697144508E0
8.980402610E-1,6.735395193E-1,-1.897647023E0,-1.710992932E0
9.000447920E-1,6.724742055E-1,-1.883798599E0,-1.725906730E0
9.020493230E-1,6.756700277E-1,-1.875276566E0,-1.739755154E0
9.040538540E-1,6.714089513E-1,-1.861428142E0,-1.754668832E0
9.060583860E-1,6.714089513E-1,-1.849710226E0,-1.766386747E0
9.080629170E-1,6.724742055E-1,-1.836927056E0,-1.774908781E0
9.100674480E-1,6.714089513E-1,-1.824143887E0,-1.783430934E0
9.120719790E-1,6.671479344E-1,-1.819882870E0,-1.790887713E0
9.140765110E-1,6.671479344E-1,-1.811360717E0,-1.806866646E0
9.160810420E-1,6.628868580E-1,-1.802838564E0,-1.815388799E0
9.180855730E-1,6.628868580E-1,-1.804969192E0,-1.824976206E0
9.200901040E-1,6.628868580E-1,-1.798577547E0,-1.832432985E0
9.220946360E-1,6.575605273E-1,-1.798577547E0,-1.843085647E0
9.240991670E-1,6.543647647E-1,-1.791120768E0,-1.852673054E0
9.261036980E-1,6.554300189E-1,-1.791120768E0,-1.857999325E0
9.281082290E-1,6.511689425E-1,-1.780468106E0,-1.865456223E0
9.301127610E-1,6.458426118E-1,-1.779402852E0,-1.868651986E0
9.321172920E-1,6.458426118E-1,-1.775141716E0,-1.876108885E0
9.341218230E-1,6.383857727E-1,-1.775141716E0,-1.878239393E0
9.361263540E-1,6.309289336E-1,-1.765554428E0,-1.881435156E0
9.381308860E-1,6.245373487E-1,-1.757032275E0,-1.885696173E0
9.401354170E-1,6.213415861E-1,-1.754901767E0,-1.886761427E0
9.421399480E-1,6.170805097E-1,-1.755967021E0,-1.891022563E0
9.441444790E-1,6.085584164E-1,-1.757032275E0,-1.891022563E0
9.461490110E-1,6.053626537E-1,-1.743183851E0,-1.895283580E0
9.481535420E-1,6.011015773E-1,-1.745314360E0,-1.894218326E0
9.501580730E-1,5.979057550E-1,-1.737857580E0,-1.899544597E0
9.521626040E-1,5.925794840E-1,-1.732531190E0,-1.894218326E0
9.541671360E-1,5.883184075E-1,-1.725074410E0,-1.891022563E0
9.561716670E-1,5.829920769E-1,-1.716552258E0,-1.894218326E0
9.581761980E-1,5.776657462E-1,-1.705899596E0,-1.886761427E0
9.601807290E-1,5.734047294E-1,-1.700573325E0,-1.880369902E0
9.621852610E-1,5.712742209E-1,-1.689920664E0,-1.886761427E0
9.641897920E-1,5.659478903E-1,-1.681398630E0,-1.882500410E0
9.661943230E-1,5.606215596E-1,-1.663289070E0,-1.882500410E0
9.681988540E-1,5.584910512E-1,-1.651571155E0,-1.877174139E0
9.702033860E-1,5.520994663E-1,-1.637722731E0,-1.872913003E0
9.722079170E-1,5.478383899E-1,-1.621743798E0,-1.869717240E0
9.742124480E-1,5.414468050E-1,-1.614287019E0,-1.866521478E0
9.762169790E-1,5.403815508E-1,-1.608960629E0,-1.862260461E0
9.782215110E-1,5.393162966E-1,-1.602569103E0,-1.862260461E0
9.802260420E-1,5.339899659E-1,-1.596177459E0,-1.863325715E0
9.822305730E-1,5.307942033E-1,-1.595112205E0,-1.860129833E0
9.842351040E-1,5.339899659E-1,-1.583394289E0,-1.855868816E0
9.862396360E-1,5.297288895E-1,-1.581263781E0,-1.852673054E0
9.882441670E-1,5.254678726E-1,-1.575937510E0,-1.847346663E0
9.902486980E-1,5.233373642E-1,-1.572741747E0,-1.839889884E0
9.922532290E-1,5.190762877E-1,-1.566350102E0,-1.837759376E0
9.942577610E-1,5.180110335E-1,-1.565284848E0,-1.832432985E0
9.962622920E-1,5.148152113E-1,-1.563154340E0,-1.823910952E0
9.982668230E-1,5.094888806E-1,-1.562089086E0,-1.812193036E0
1.000271354E0,5.073583722E-1,-1.558893323E0,-1.807932019E0
1.002275886E0,5.020320415E-1,-1.548240662E0,-1.800475121E0
1.004280417E0,4.967057705E-1,-1.542914271E0,-1.790887713E0
1.006284948E0,4.924447238E-1,-1.530131102E0,-1.788757205E0
1.008289479E0,4.839226007E-1,-1.534392238E0,-1.780235171E0
1.010294011E0,4.775310457E-1,-1.538653255E0,-1.772778273E0
1.012298542E0,4.732699692E-1,-1.552501678E0,-1.762125611E0
1.014303073E0,4.690089226E-1,-1.571676493E0,-1.753603578E0
1.016307604E0,4.604868293E-1,-1.588720679E0,-1.747211933E0
1.018312136E0,4.551604986E-1,-1.598307967E0,-1.735494018E0
1.020316667E0,4.466383755E-1,-1.612156510E0,-1.729102492E0
1.022321198E0,4.381162822E-1,-1.621743798E0,-1.714188814E0
1.024325729E0,4.232026041E-1,-1.637722731E0,-1.703536153E0
1.026330261E0,4.146804810E-1,-1.643049121E0,-1.688622475E0
1.028334792E0,4.008320570E-1,-1.653701782E0,-1.672643542E0
1.030339323E0,3.869836330E-1,-1.660093307E0,-1.660925627E0
1.032343854E0,3.720699549E-1,-1.665419579E0,-1.648142457E0
1.034348386E0,3.539604545E-1,-1.677137494E0,-1.637489796E0
1.036352917E0,3.379815221E-1,-1.683529139E0,-1.626837134E0
1.038357448E0,3.251983523E-1,-1.686724901E0,-1.612988710E0
1.040361979E0,3.070888817E-1,-1.686724901E0,-1.606597185E0
1.042366511E0,2.943057120E-1,-1.693116426E0,-1.591683507E0
1.044371042E0,2.761962116E-1,-1.699508071E0,-1.586357117E0
1.046375573E0,2.644783258E-1,-1.699508071E0,-1.574639201E0
1.048380104E0,2.506299019E-1,-1.701638579E0,-1.566117167E0
1.050384636E0,2.399772406E-1,-1.703769088E0,-1.556529760E0
1.052389167E0,2.271940708E-1,-1.710160732E0,-1.550138235E0
1.054393698E0,2.165414393E-1,-1.718682766E0,-1.538420320E0
1.056398229E0,2.101498544E-1,-1.722943902E0,-1.526702404E0
1.058402761E0,2.026930153E-1,-1.725074410E0,-1.521376133E0
1.060407344E0,1.963014305E-1,-1.727204919E0,-1.509658217E0
1.062411927E0,1.867140532E-1,-1.730400681E0,-1.496875048E0
1.064416511E0,1.781919599E-1,-1.728270173E0,-1.487287641E0
1.066421094E0,1.760614216E-1,-1.729335427E0,-1.483026624E0
1.068425677E0,1.686045825E-1,-1.731465936E0,-1.467047691E0
1.070430261E0,1.600824744E-1,-1.736792326E0,-1.457460284E0
1.072434844E0,1.536908895E-1,-1.737857580E0,-1.452133894E0
1.074439427E0,1.494298428E-1,-1.742118597E0,-1.441481352E0
1.076444011E0,1.419729888E-1,-1.739988089E0,-1.435089707E0
1.078448594E0,1.334508806E-1,-1.732531190E0,-1.423371792E0
1.080453177E0,1.313203573E-1,-1.735727072E0,-1.420176029E0
1.082457761E0,1.174719334E-1,-1.736792326E0,-1.410588622E0
1.084462344E0,1.142761409E-1,-1.739988089E0,-1.404197097E0
1.086466927E0,1.089498252E-1,-1.744249105E0,-1.397805452E0
1.088471511E0,1.004277170E-1,-1.750640750E0,-1.385022402E0
1.090476094E0,9.510140121E-2,-1.752771258E0,-1.379696012E0
1.092480677E0,9.190560877E-2,-1.749575496E0,-1.373304486E0
1.094485261E0,8.764455467E-2,-1.749575496E0,-1.365847588E0
1.096489844E0,8.444876224E-2,-1.746379614E0,-1.360521317E0
1.098494427E0,7.699191570E-2,-1.737857580E0,-1.348803401E0
1.100499011E0,7.912244648E-2,-1.735727072E0,-1.349868655E0
1.102503594E0,7.912244648E-2,-1.734661698E0,-1.339215994E0
1.104508177E0,7.805718482E-2,-1.727204919E0,-1.330693960E0
1.106512761E0,7.912244648E-2,-1.724009156E0,-1.322171807E0
1.108517344E0,7.592665404E-2,-1.712291241E0,-1.315780163E0
1.110521927E0,7.699191570E-2,-1.703769088E0,-1.308323383E0
1.112526511E0,7.379612327E-2,-1.695247054E0,-1.300866485E0
1.114531094E0,7.486139238E-2,-1.679268003E0,-1.296605468E0
1.116535625E0,7.273086160E-2,-1.670745969E0,-1.288083315E0
1.118540157E0,7.273086160E-2,-1.661158562E0,-1.276365519E0
1.120544688E0,7.166559994E-2,-1.647310138E0,-1.268908620E0
1.122549219E0,6.846980751E-2,-1.636657476E0,-1.263582349E0
1.124553750E0,6.846980751E-2,-1.626004934E0,-1.250799179E0
1.126558282E0,7.379612327E-2,-1.611091137E0,-1.247603297E0
1.128562813E0,7.273086160E-2,-1.604699612E0,-1.236950755E0
1.130567344E0,6.846980751E-2,-1.586590171E0,-1.228428602E0
1.132571875E0,6.953507662E-2,-1.570611119E0,-1.216710687E0
1.134576407E0,7.273086160E-2,-1.554632187E0,-1.214580178E0
1.136580938E0,7.166559994E-2,-1.542914271E0,-1.201797009E0
1.138585469E0,7.273086160E-2,-1.525870085E0,-1.193274975E0
1.140590000E0,6.846980751E-2,-1.517348051E0,-1.190079093E0
1.142594532E0,6.953507662E-2,-1.501368999E0,-1.179426432E0
1.144599063E0,6.633928418E-2,-1.486455321E0,-1.169839144E0
1.146603594E0,6.740454584E-2,-1.470476389E0,-1.164512753E0
1.148608125E0,6.953507662E-2,-1.457693219E0,-1.150664330E0
1.150612657E0,6.633928418E-2,-1.441714287E0,-1.146403313E0
1.152617188E0,7.166559994E-2,-1.431061625E0,-1.130424380E0
1.154621719E0,7.379612327E-2,-1.418278456E0,-1.121902227E0
1.156626250E0,7.592665404E-2,-1.406560540E0,-1.119771719E0
1.158630782E0,7.805718482E-2,-1.396973252E0,-1.102727532E0
1.160635313E0,8.444876224E-2,-1.389516354E0,-1.100597024E0
1.162639844E0,8.551402390E-2,-1.382059574E0,-1.084618092E0
1.164644375E0,8.870981634E-2,-1.376733184E0,-1.069704294E0
1.166648907E0,8.870981634E-2,-1.375667930E0,-1.054790616E0
1.168653438E0,8.977507800E-2,-1.371406913E0,-1.042007446E0
1.170657969E0,8.764455467E-2,-1.367145896E0,-1.027093768E0
1.172662500E0,8.870981634E-2,-1.361819506E0,-1.008984327E0
1.174667032E0,8.764455467E-2,-1.363950014E0,-9.940706491E-1
1.176671563E0,8.977507800E-2,-1.360754251E0,-9.759611487E-1
1.178676094E0,8.977507800E-2,-1.358623743E0,-9.631779790E-1
1.180680625E0,9.190560877E-2,-1.366080523E0,-9.429379702E-1
1.182685157E0,9.403613210E-2,-1.363950014E0,-9.322853684E-1
1.184689688E0,9.403613210E-2,-1.371406913E0,-9.141758680E-1
1.186694219E0,9.403613210E-2,-1.366080523E0,-9.035232067E-1
1.188698750E0,8.870981634E-2,-1.368211150E0,-8.896747828E-1
1.190703282E0,8.444876224E-2,-1.365015268E0,-8.747611046E-1
1.192707813E0,7.805718482E-2,-1.363950014E0,-8.641085029E-1
1.194712344E0,7.273086160E-2,-1.361819506E0,-8.459990025E-1
1.196716875E0,7.060033828E-2,-1.367145896E0,-8.332158327E-1
1.198721407E0,6.740454584E-2,-1.362884760E0,-8.204326630E-1
1.200725938E0,6.101296842E-2,-1.358623743E0,-8.108453155E-1
1.202730469E0,5.781717598E-2,-1.352232099E0,-7.959316373E-1
1.204735000E0,5.568664521E-2,-1.345840573E0,-7.938010693E-1
1.206739532E0,5.568664521E-2,-1.343710065E0,-7.874094844E-1
1.208744063E0,5.249086022E-2,-1.337318420E0,-7.788873911E-1
1.210748594E0,4.716453701E-2,-1.335187912E0,-7.714305520E-1
1.212753125E0,4.822980613E-2,-1.329861641E0,-7.693000436E-1
1.214757657E0,4.077295959E-2,-1.325600505E0,-7.639737129E-1
1.216762188E0,4.183822125E-2,-1.317078471E0,-7.597126365E-1
1.218766719E0,3.544664383E-2,-1.318143725E0,-7.565168738E-1
1.220771250E0,3.331611305E-2,-1.311752081E0,-7.533210516E-1
1.222775782E0,2.692453377E-2,-1.309621572E0,-7.490600348E-1
1.224780313E0,2.585927211E-2,-1.302164793E0,-7.447989583E-1
1.226784844E0,2.798979916E-2,-1.295773149E0,-7.469295263E-1
1.228789375E0,2.905506082E-2,-1.290446877E0,-7.490600348E-1
1.230793907E0,2.905506082E-2,-1.285120606E0,-7.447989583E-1
1.232798438E0,3.331611305E-2,-1.279794216E0,-7.511905432E-1
1.234802969E0,3.331611305E-2,-1.272337437E0,-7.458642125E-1
1.236807500E0,3.970769793E-2,-1.260619521E0,-7.490600348E-1
1.238812032E0,4.609927535E-2,-1.246771097E0,-7.479947805E-1
1.240816563E0,5.142559111E-2,-1.225465775E0,-7.458642125E-1
1.242821094E0,5.675191432E-2,-1.210552096E0,-7.352116108E-1
1.244825625E0,6.314349174E-2,-1.192442656E0,-7.330811024E-1
1.246830157E0,6.207823008E-2,-1.179659486E0,-7.309505343E-1
1.248834688E0,6.101296842E-2,-1.166876316E0,-7.288200259E-1
1.250835625E0,5.994769931E-2,-1.147701502E0,-7.298852801E-1
1.252836563E0,5.568664521E-2,-1.133853078E0,-7.298852801E-1
1.254837917E0,5.249086022E-2,-1.122135282E0,-7.288200259E-1
1.256839792E0,5.249086022E-2,-1.109352112E0,-7.309505343E-1
1.258842292E0,5.888243765E-2,-1.089112043E0,-7.330811024E-1
1.260845469E0,5.994769931E-2,-1.073133111E0,-7.298852801E-1
1.262849323E0,6.207823008E-2,-1.062480450E0,-7.298852801E-1
1.264853854E0,5.888243765E-2,-1.042240500E0,-7.277547717E-1
1.266859063E0,6.527401507E-2,-1.031587839E0,-7.234936953E-1
1.268864896E0,6.314349174E-2,-1.014543653E0,-7.202979326E-1
1.270871250E0,6.846980751E-2,-9.953689575E-1,-7.181673646E-1
1.272878073E0,6.953507662E-2,-9.815204740E-1,-7.117757797E-1
1.274885261E0,7.166559994E-2,-9.644762874E-1,-7.032536864E-1
1.276892657E0,6.846980751E-2,-9.431710243E-1,-6.936663389E-1
1.278900157E0,7.166559994E-2,-9.303878546E-1,-6.851441860E-1
1.280907657E0,7.273086160E-2,-9.058867693E-1,-6.723610759E-1
1.282912188E0,7.379612327E-2,-8.899078369E-1,-6.563820839E-1
1.284916719E0,7.699191570E-2,-8.664720654E-1,-6.531863213E-1
1.286921250E0,7.912244648E-2,-8.398404717E-1,-6.382726431E-1
1.288925782E0,7.592665404E-2,-8.238614798E-1,-6.233589053E-1
1.290930313E0,7.805718482E-2,-8.100130558E-1,-6.095104814E-1
1.292934844E0,7.592665404E-2,-7.897730470E-1,-5.956620574E-1
1.294939375E0,7.486139238E-2,-7.663372755E-1,-5.764873624E-1
1.296943907E0,7.060033828E-2,-7.450320125E-1,-5.541167855E-1
1.298948438E0,7.273086160E-2,-7.301183343E-1,-5.338767767E-1
1.300952969E0,6.740454584E-2,-7.066825032E-1,-5.157673359E-1
1.302957500E0,6.633928418E-2,-6.789856553E-1,-4.955272973E-1
1.304962032E0,6.633928418E-2,-6.640719771E-1,-4.763525724E-1
1.306966563E0,6.101296842E-2,-6.459624767E-1,-4.518514872E-1
1.308971094E0,5.888243765E-2,-6.267877221E-1,-4.305462241E-1
1.310975625E0,5.568664521E-2,-6.033519506E-1,-4.156325459E-1
1.312980157E0,5.036032945E-2,-5.852424502E-1,-3.890009522E-1
1.314984688E0,5.462138355E-2,-5.660677552E-1,-3.666304350E-1
1.316989219E0,5.036032945E-2,-5.436971784E-1,-3.453251421E-1
1.318993750E0,4.503401369E-2,-5.266529918E-1,-3.229546249E-1
1.320998282E0,4.503401369E-2,-5.053476691E-1,-3.016493320E-1
1.323002813E0,4.396875203E-2,-4.904339910E-1,-2.803440690E-1
1.325007344E0,3.864242882E-2,-4.733897746E-1,-2.579735518E-1
1.327011875E0,3.331611305E-2,-4.552803040E-1,-2.377335131E-1
1.329016407E0,3.225085139E-2,-4.393013418E-1,-2.121671885E-1
1.331020938E0,3.118558787E-2,-4.148002863E-1,-1.919271797E-1
1.333025469E0,3.331611305E-2,-4.030823708E-1,-1.706219167E-1
1.335030000E0,2.798979916E-2,-3.881686926E-1,-1.503819078E-1
1.337034532E0,2.692453377E-2,-3.721897304E-1,-1.301418990E-1
1.339039063E0,2.585927211E-2,-3.530150056E-1,-1.099019125E-1
1.341043594E0,2.692453377E-2,-3.391665816E-1,-8.753137290E-2
1.343048125E0,2.905506082E-2,-3.274486661E-1,-6.942189485E-2
1.345052657E0,2.798979916E-2,-3.104044497E-1,-5.450820178E-2
1.347057188E0,2.479400672E-2,-2.933602333E-1,-3.320293501E-2
1.349061719E0,2.266348153E-2,-2.805770636E-1,-1.828924380E-2
1.351066250E0,2.692453377E-2,-2.592718005E-1,-2.310290001E-3
1.353070782E0,2.372874506E-2,-2.507497072E-1,1.153813489E-2
1.355075313E0,2.798979916E-2,-2.379665673E-1,2.432129718E-2
1.357079844E0,3.544664383E-2,-2.187918127E-1,4.243078083E-2
1.359084375E0,3.651190549E-2,-2.006823421E-1,5.308341607E-2
1.361088907E0,4.183822125E-2,-1.868339181E-1,7.119289041E-2
1.363093438E0,4.609927535E-2,-1.697897017E-1,7.971499860E-2
1.365097969E0,5.249086022E-2,-1.548760086E-1,9.249816090E-2
1.367102500E0,5.994769931E-2,-1.346359998E-1,9.888973832E-2
1.369107032E0,7.060033828E-2,-1.165265143E-1,1.063465849E-1
1.371111563E0,8.125296980E-2,-9.841703624E-2,1.212602705E-1
1.373116094E0,9.084033966E-2,-7.924228907E-2,1.308476627E-1
1.375120625E0,1.014929786E-1,-5.900228396E-2,1.425655633E-1
1.377125157E0,1.121456176E-1,-3.769701347E-2,1.564139873E-1
1.379129688E0,1.206677258E-1,-1.426121499E-2,1.681318879E-1
1.381134219E0,1.302550882E-1,8.109319024E-3,1.766539961E-1
1.383138750E0,1.409077346E-1,2.834932506E-2,1.862413585E-1
1.385143282E0,1.526256204E-1,4.965459928E-2,2.000897974E-1
1.387147813E0,1.718003750E-1,7.415565848E-2,2.096771598E-1
1.389152344E0,1.813877374E-1,8.693882078E-2,2.213950604E-1
1.391156875E0,1.963014305E-1,1.125051454E-1,2.277866453E-1
1.393161407E0,2.048235387E-1,1.370061934E-1,2.363087535E-1
1.395165938E0,2.154761702E-1,1.572462022E-1,2.522876859E-1
1.397170469E0,2.293246090E-1,1.849430501E-1,2.629403174E-1
1.399175000E0,2.399772406E-1,2.062483281E-1,2.661361098E-1
1.401179532E0,2.495646328E-1,2.254230678E-1,2.767887414E-1
1.403184063E0,2.644783258E-1,2.467283309E-1,2.831803262E-1
1.405188594E0,2.761962116E-1,2.680336535E-1,2.917024493E-1
1.407193125E0,2.857835889E-1,2.797515392E-1,2.959634960E-1
1.409197657E0,3.017625511E-1,3.042525947E-1,2.980940342E-1
1.411202188E0,3.060235977E-1,3.159705102E-1,3.066161275E-1
1.413206719E0,3.230678141E-1,3.362105191E-1,3.066161275E-1
1.415211250E0,3.273288906E-1,3.575157821E-1,3.087466657E-1
1.417215782E0,3.358509839E-1,3.830820918E-1,3.108771741E-1
1.419220313E0,3.465036154E-1,4.097136855E-1,3.087466657E-1
1.421224844E0,3.582215309E-1,4.352800250E-1,3.172687590E-1
1.423229375E0,3.656783700E-1,4.629768729E-1,3.151382208E-1
1.425233907E0,3.731352091E-1,4.928042591E-1,3.140729666E-1
1.427238438E0,3.837878406E-1,5.162400007E-1,3.151382208E-1
1.429242969E0,3.880488873E-1,5.396758318E-1,3.119424582E-1
1.431247500E0,3.933752179E-1,5.684379339E-1,3.130077124E-1
1.433252032E0,3.944404721E-1,5.876126885E-1,3.076813817E-1
1.435256563E0,3.987015188E-1,6.153095365E-1,3.034203351E-1
1.437261094E0,4.018973112E-1,6.344842911E-1,3.002245426E-1
1.439265625E0,4.018973112E-1,6.611158252E-1,2.959634960E-1
1.441270157E0,4.061583877E-1,6.781600714E-1,2.927677035E-1
1.443274688E0,4.093541801E-1,6.973348260E-1,2.874413729E-1
1.445279219E0,4.082888961E-1,7.229011655E-1,2.757234871E-1
1.447283750E0,4.029625952E-1,7.431411147E-1,2.725276947E-1
1.449288282E0,4.029625952E-1,7.623158693E-1,2.650708556E-1
1.451292813E0,4.018973112E-1,7.868169546E-1,2.586792707E-1
1.453297344E0,4.008320570E-1,8.091874719E-1,2.469613850E-1
1.455301875E0,3.955057561E-1,8.294274807E-1,2.437655926E-1
1.457306407E0,3.933752179E-1,8.475369811E-1,2.341782302E-1
1.459310938E0,3.923099637E-1,8.635159135E-1,2.277866453E-1
1.461315469E0,3.965710104E-1,8.635159135E-1,2.203297913E-1
1.463320000E0,3.987015188E-1,8.720380068E-1,2.043508440E-1
1.465324532E0,4.008320570E-1,8.762990832E-1,1.915676743E-1
1.467329063E0,4.008320570E-1,8.752338290E-1,1.841108352E-1
1.469333594E0,4.018973112E-1,8.805601597E-1,1.734582037E-1
1.471338125E0,4.040278494E-1,8.784295917E-1,1.670666188E-1
1.473342657E0,4.061583877E-1,8.858864307E-1,1.489571482E-1
1.475347188E0,4.050931036E-1,8.848211765E-1,1.361739784E-1
1.477351719E0,4.082888961E-1,8.912127614E-1,1.244560704E-1
1.479356250E0,4.093541801E-1,8.848211765E-1,1.106076390E-1
1.481360782E0,4.072236419E-1,8.858864307E-1,9.782447666E-2
1.483365313E0,4.082888961E-1,8.858864307E-1,7.864972949E-2
1.485369844E0,4.104194343E-1,8.826906681E-1,6.267078221E-2
1.487374375E0,4.114846885E-1,8.762990832E-1,4.882236198E-2
1.489378907E0,4.114846885E-1,8.709727526E-1,3.177814558E-2
1.491383438E0,4.093541801E-1,8.603201509E-1,1.473392546E-2
1.493387969E0,4.104194343E-1,8.464717269E-1,-2.310290001E-3
1.495392500E0,4.072236419E-1,8.390148878E-1,-1.615871675E-2
1.497397032E0,4.093541801E-1,8.209053874E-1,-3.746398538E-2
1.499401563E0,4.061583877E-1,8.027958870E-1,-5.024714768E-2
1.501406094E0,4.072236419E-1,7.836211324E-1,-7.368294895E-2
1.503410625E0,4.018973112E-1,7.665769458E-1,-8.859664202E-2
1.505415157E0,4.008320570E-1,7.516632676E-1,-1.056408584E-1
1.507419688E0,3.965710104E-1,7.346190214E-1,-1.258808672E-1
1.509424219E0,3.923099637E-1,7.079874277E-1,-1.450555921E-1
1.511428750E0,3.944404721E-1,6.781600714E-1,-1.599692851E-1
1.513433282E0,3.987015188E-1,6.451368928E-1,-1.791440248E-1
1.515437813E0,3.933752179E-1,6.057221293E-1,-1.951229721E-1
1.517442344E0,3.933752179E-1,5.705684423E-1,-2.089713961E-1
1.519446875E0,3.955057561E-1,5.290231705E-1,-2.217545658E-1
1.521451407E0,3.944404721E-1,4.810863435E-1,-2.377335131E-1
1.523455938E0,3.955057561E-1,4.342147410E-1,-2.505166829E-1
1.525460469E0,3.912446797E-1,3.862778842E-1,-2.547777593E-1
1.527465000E0,3.880488873E-1,3.287536502E-1,-2.664956450E-1
1.529469532E0,3.837878406E-1,2.829473317E-1,-2.739524841E-1
1.531474063E0,3.837878406E-1,2.286188602E-1,-2.856703997E-1
1.533478594E0,3.784615099E-1,1.753556877E-1,-2.920619845E-1
1.535483125E0,3.763310015E-1,1.188967302E-1,-2.995188236E-1
1.537487657E0,3.710046709E-1,6.456828862E-2,-3.059104085E-1
1.539492188E0,3.656783700E-1,7.044055499E-3,-3.154977560E-1
1.541496719E0,3.614173234E-1,-5.048017576E-2,-3.186935484E-1
1.543501250E0,3.539604545E-1,-1.090696678E-1,-3.261504173E-1
1.545505782E0,3.507646620E-1,-1.612675935E-1,-3.336072564E-1
1.547510313E0,3.433078229E-1,-2.155960351E-1,-3.368030488E-1
1.549514844E0,3.347857296E-1,-2.720549703E-1,-3.399988413E-1
1.551519375E0,3.283941448E-1,-3.263834119E-1,-3.485209346E-1
1.553523907E0,3.209373057E-1,-3.817771077E-1,-3.527819812E-1
1.555528438E0,3.188067675E-1,-4.382360876E-1,-3.570430577E-1
1.557532969E0,3.081541359E-1,-4.925645292E-1,-3.538472652E-1
1.559537500E0,2.975015044E-1,-5.479582548E-1,-3.549125195E-1
1.561542032E0,2.932404578E-1,-5.980256200E-1,-3.602388501E-1
1.563546563E0,2.825877964E-1,-6.470277309E-1,-3.602388501E-1
1.565551094E0,2.740657032E-1,-6.960299015E-1,-3.613041043E-1
1.567555625E0,2.655435801E-1,-7.460972667E-1,-3.613041043E-1
1.569560157E0,2.570214868E-1,-7.897730470E-1,-3.613041043E-1
1.571564688E0,2.495646328E-1,-8.291878104E-1,-3.644998968E-1
1.573569219E0,2.378467023E-1,-8.771246672E-1,-3.613041043E-1
1.575573750E0,2.314551324E-1,-9.112131000E-1,-3.623693585E-1
1.577578282E0,2.208024859E-1,-9.474321008E-1,-3.591735661E-1
1.579582813E0,2.069540620E-1,-9.825857878E-1,-3.623693585E-1
1.581587344E0,2.016277462E-1,-1.016674161E0,-3.613041043E-1
1.583591875E0,1.899098456E-1,-1.056088924E0,-3.623693585E-1
1.585596407E0,1.803224832E-1,-1.084851027E0,-3.655651510E-1
1.587600938E0,1.749961674E-1,-1.114678383E0,-3.666304350E-1
1.589605469E0,1.675393134E-1,-1.145570993E0,-3.644998968E-1
1.591610000E0,1.558214128E-1,-1.172202587E0,-3.613041043E-1
1.593614532E0,1.494298428E-1,-1.204160571E0,-3.644998968E-1
1.595619063E0,1.462340504E-1,-1.231857419E0,-3.655651510E-1
1.597623594E0,1.398424655E-1,-1.258489013E0,-3.655651510E-1
1.599628125E0,1.323856264E-1,-1.278728962E0,-3.623693585E-1
1.601632657E0,1.313203573E-1,-1.308556318E0,-3.538472652E-1
1.603637188E0,1.227982491E-1,-1.330926895E0,-3.559777737E-1
1.605641719E0,1.206677258E-1,-1.347971082E0,-3.549125195E-1
1.607646250E0,1.185372025E-1,-1.369276404E0,-3.570430577E-1
1.609650782E0,1.121456176E-1,-1.390581608E0,-3.495861888E-1
1.611655313E0,1.121456176E-1,-1.409756422E0,-3.495861888E-1
1.613659844E0,1.110803485E-1,-1.418278456E0,-3.410640955E-1
1.615664375E0,1.036235094E-1,-1.435322762E0,-3.389335573E-1
1.617668907E0,1.036235094E-1,-1.450236440E0,-3.357377648E-1
1.619673438E0,9.829718620E-2,-1.461954236E0,-3.282809258E-1
1.621677969E0,1.004277170E-1,-1.469411135E0,-3.218893409E-1
1.623682500E0,9.510140121E-2,-1.477933288E0,-3.176282942E-1
1.625687032E0,9.297087044E-2,-1.482194304E0,-3.112367094E-1
1.627691563E0,8.764455467E-2,-1.492846966E0,-3.048451245E-1
1.629696094E0,8.657929301E-2,-1.499238491E0,-3.027146161E-1
1.631700625E0,8.764455467E-2,-1.503499627E0,-2.973882854E-1
1.633705157E0,8.338350058E-2,-1.504564881E0,-2.899314463E-1
1.635709688E0,8.551402390E-2,-1.512021661E0,-2.867356539E-1
1.637714219E0,8.338350058E-2,-1.512021661E0,-2.792788148E-1
1.639718750E0,8.018770814E-2,-1.510956407E0,-2.632998526E-1
1.641723282E0,8.338350058E-2,-1.509891152E0,-2.526472211E-1
1.643727813E0,8.018770814E-2,-1.510956407E0,-2.473208904E-1
1.645732344E0,8.338350058E-2,-1.510956407E0,-2.377335131E-1
1.647736875E0,8.231823146E-2,-1.514152169E0,-2.313419431E-1
1.649741407E0,8.551402390E-2,-1.507760644E0,-2.206892967E-1
1.651745938E0,8.231823146E-2,-1.507760644E0,-2.121671885E-1
1.653750469E0,8.657929301E-2,-1.501368999E0,-2.057756186E-1
1.655755000E0,8.551402390E-2,-1.496042728E0,-1.972535104E-1
1.657759532E0,8.764455467E-2,-1.488585830E0,-1.951229721E-1
1.659764063E0,8.764455467E-2,-1.475802779E0,-1.834050864E-1
1.661768594E0,8.977507800E-2,-1.464084864E0,-1.780787557E-1
1.663773125E0,9.084033966E-2,-1.455562711E0,-1.727524400E-1
1.665777657E0,9.084033966E-2,-1.447040558E0,-1.642303318E-1
1.667782188E0,8.977507800E-2,-1.428931117E0,-1.557082236E-1
1.669786719E0,9.190560877E-2,-1.418278456E0,-1.482513845E-1
1.671791250E0,9.723192453E-2,-1.408691168E0,-1.429250687E-1
1.673795782E0,9.616666287E-2,-1.392712116E0,-1.354682148E-1
1.675800313E0,1.004277170E-1,-1.374602675E0,-1.290766448E-1
1.677804844E0,1.025582403E-1,-1.357558489E0,-1.216198057E-1
1.679809375E0,1.004277170E-1,-1.338383675E0,-1.152282283E-1
1.681813907E0,1.068192944E-1,-1.321339488E0,-1.141629666E-1
1.683818438E0,1.110803485E-1,-1.302164793E0,-1.120324358E-1
1.685822969E0,1.132108793E-1,-1.287251115E0,-1.045755893E-1
1.687827500E0,1.174719334E-1,-1.265945792E0,-1.035103276E-1
1.689832032E0,1.164066643E-1,-1.248901606E0,-9.818401188E-2
1.691836615E0,1.217329800E-1,-1.231857419E0,-9.711875021E-2
1.693841198E0,1.249287724E-1,-1.207356334E0,-9.605348110E-2
1.695845782E0,1.281245649E-1,-1.186051011E0,-9.285769612E-2
1.697850365E0,1.291898340E-1,-1.162615299E0,-9.179243445E-2
1.699854948E0,1.334508806E-1,-1.137048960E0,-9.072716534E-2
1.701859532E0,1.323856264E-1,-1.109352112E0,-9.179243445E-2
1.703864115E0,1.366466731E-1,-1.081655264E0,-9.179243445E-2
1.705868698E0,1.387771964E-1,-1.060349941E0,-8.753137290E-2
1.707873282E0,1.387771964E-1,-1.036914110E0,-9.285769612E-2
1.709877865E0,1.419729888E-1,-1.011347771E0,-8.966190368E-2
1.711882448E0,1.387771964E-1,-9.900426269E-1,-8.966190368E-2
1.713887032E0,1.409077346E-1,-9.623457789E-1,-9.179243445E-2
1.715891615E0,1.430382580E-1,-9.367794394E-1,-8.540084958E-2
1.717896198E0,1.419729888E-1,-9.037562609E-1,-8.753137290E-2
1.719900782E0,1.451687813E-1,-8.824509978E-1,-8.966190368E-2
1.721905365E0,1.472993046E-1,-8.568846583E-1,-9.072716534E-2
1.723909948E0,1.441035271E-1,-8.291878104E-1,-9.072716534E-2
1.725914532E0,1.483645737E-1,-8.014909625E-1,-8.966190368E-2
1.727919115E0,1.472993046E-1,-7.769898772E-1,-9.392295778E-2
1.729923698E0,1.441035271E-1,-7.524888515E-1,-8.753137290E-2
1.731928282E0,1.451687813E-1,-7.311835885E-1,-8.753137290E-2
1.733932865E0,1.441035271E-1,-7.098783255E-1,-8.433558792E-2
1.735937448E0,1.430382580E-1,-6.864424944E-1,-8.433558792E-2
1.737942032E0,1.430382580E-1,-6.651372313E-1,-8.007453382E-2
1.739946615E0,1.409077346E-1,-6.448972225E-1,-8.007453382E-2
1.741951198E0,1.377119422E-1,-6.203961968E-1,-7.368294895E-2
1.743955782E0,1.377119422E-1,-5.980256200E-1,-6.622610986E-2
1.745960365E0,1.334508806E-1,-5.777856112E-1,-6.089977920E-2
1.747964896E0,1.323856264E-1,-5.628719330E-1,-5.131240934E-2
1.749969427E0,1.238635182E-1,-5.405014157E-1,-4.385556281E-2
1.751973959E0,1.270593107E-1,-5.213266611E-1,-3.533345461E-2
1.753978490E0,1.238635182E-1,-5.042824149E-1,-2.894187905E-2
1.755983021E0,1.185372025E-1,-4.883034527E-1,-2.148503438E-2
1.757987552E0,1.153414026E-1,-4.659329355E-1,-1.722398028E-2
1.759992084E0,1.196024567E-1,-4.488887191E-1,-1.083239913E-2
1.761996615E0,1.132108793E-1,-4.361055493E-1,-5.506080575E-3
1.764001146E0,1.121456176E-1,-4.179960787E-1,3.016027622E-3
1.766005677E0,1.089498252E-1,-4.020171165E-1,1.260339841E-2
1.768010209E0,1.078845561E-1,-3.881686926E-1,1.473392546E-2
1.770014740E0,1.036235094E-1,-3.732550144E-1,2.325603366E-2
1.772019271E0,1.036235094E-1,-3.562107980E-1,3.390867263E-2
1.774023802E0,9.829718620E-2,-3.434276283E-1,4.456130788E-2
1.776028334E0,9.936244786E-2,-3.285139203E-1,5.201815069E-2
1.778032865E0,9.723192453E-2,-3.146654963E-1,5.734447017E-2
1.780037396E0,8.870981634E-2,-3.018823564E-1,7.012762129E-2
1.782041927E0,8.657929301E-2,-2.880339324E-1,7.225815207E-2
1.784046459E0,8.551402390E-2,-2.688591778E-1,8.291079104E-2
1.786050990E0,8.231823146E-2,-2.560760081E-1,9.249816090E-2
1.788055521E0,7.699191570E-2,-2.411623597E-1,1.052813232E-1
1.790060052E0,7.273086160E-2,-2.283791900E-1,1.052813232E-1
1.792064584E0,7.166559994E-2,-2.134654969E-1,1.191297472E-1
1.794069115E0,6.846980751E-2,-2.017475963E-1,1.276518703E-1
1.796073646E0,6.527401507E-2,-1.857686490E-1,1.340434551E-1
1.798078177E0,5.994769931E-2,-1.729854941E-1,1.415002942E-1
1.800082709E0,6.207823008E-2,-1.527454853E-1,1.521529257E-1
1.802087240E0,5.675191432E-2,-1.367665231E-1,1.638708264E-1
1.804091771E0,5.675191432E-2,-1.218528301E-1,1.691971421E-1
1.806096302E0,5.675191432E-2,-1.058738753E-1,1.777192503E-1
1.808100834E0,4.929506779E-2,-9.096018970E-2,1.819803119E-1
1.810105365E0,5.142559111E-2,-7.817702740E-2,1.958287358E-1
1.812109896E0,5.142559111E-2,-5.687175319E-2,2.022203207E-1
1.814114427E0,5.249086022E-2,-4.728438333E-2,2.075466365E-1
1.816118959E0,4.929506779E-2,-2.917490527E-2,2.128729522E-1
1.818123490E0,4.929506779E-2,-1.745700650E-2,2.235255837E-1
1.820128021E0,5.036032945E-2,-1.478052931E-3,2.331129611E-1
1.822132552E0,4.716453701E-2,1.237037312E-2,2.373740077E-1
1.824137084E0,5.036032945E-2,2.621879801E-2,2.469613850E-1
1.826141615E0,5.036032945E-2,3.900196031E-2,2.522876859E-1
1.828146146E0,4.503401369E-2,5.604618415E-2,2.597445250E-1
1.830150677E0,5.355612189E-2,7.309039682E-2,2.672013640E-1
1.832155209E0,5.036032945E-2,9.333039820E-2,2.725276947E-1
1.834159740E0,5.249086022E-2,9.865672141E-2,2.799845338E-1
1.836164271E0,5.142559111E-2,1.178314611E-1,2.863761187E-1
1.838168802E0,4.929506779E-2,1.274188310E-1,2.938329577E-1
1.840173334E0,4.503401369E-2,1.465935707E-1,3.055508733E-1
1.842177865E0,4.716453701E-2,1.604419947E-1,3.130077124E-1
1.844182396E0,4.609927535E-2,1.753556877E-1,3.193992972E-1
1.846186927E0,4.716453701E-2,1.881388426E-1,3.311171830E-1
1.848191459E0,4.609927535E-2,2.030525357E-1,3.396393061E-1
1.850195990E0,4.396875203E-2,2.190314829E-1,3.492266536E-1
1.852200521E0,4.183822125E-2,2.350104451E-1,3.598793149E-1
1.854205052E0,3.970769793E-2,2.445978224E-1,3.684014082E-1
1.856209584E0,4.396875203E-2,2.552504838E-1,3.769235313E-1
1.858214115E0,4.396875203E-2,2.733599544E-1,3.843803704E-1
1.860218646E0,3.970769793E-2,2.786862850E-1,3.971635401E-1
1.862223177E0,3.438137472E-2,2.957305014E-1,4.024898410E-1
1.864227709E0,3.864242882E-2,3.106441796E-1,4.099466801E-1
1.866232240E0,3.864242882E-2,3.181010187E-1,4.227298498E-1
1.868236771E0,3.757716715E-2,3.287536502E-1,4.259256423E-1
1.870242865E0,3.970769793E-2,3.415368199E-1,4.333824813E-1
1.872246250E0,3.864242882E-2,3.617768288E-1,4.365782738E-1
1.874249636E0,4.077295959E-2,3.660378754E-1,4.387088120E-1
1.876253073E0,4.077295959E-2,3.734947145E-1,4.461656511E-1
1.878256615E0,3.970769793E-2,3.873431683E-1,4.536224902E-1
1.880260313E0,4.503401369E-2,3.969305158E-1,4.525572360E-1
1.882264167E0,4.290348291E-2,4.107789397E-1,4.525572360E-1
1.884268229E0,4.929506779E-2,4.182358086E-1,4.493614435E-1
1.886272500E0,5.355612189E-2,4.267579019E-1,4.504266977E-1
1.888276979E0,5.462138355E-2,4.384758174E-1,4.482961893E-1
1.890281667E0,5.568664521E-2,4.395410717E-1,4.493614435E-1
1.892286563E0,5.888243765E-2,4.448673725E-1,4.429698586E-1
1.894291615E0,6.527401507E-2,4.491284490E-1,4.397740662E-1
1.896296823E0,6.633928418E-2,4.544547498E-1,4.312519729E-1
1.898302136E0,7.273086160E-2,4.565852880E-1,4.259256423E-1
1.900307500E0,7.805718482E-2,4.587158263E-1,4.184688032E-1
1.902312917E0,7.486139238E-2,4.629768729E-1,4.184688032E-1
1.904318334E0,7.912244648E-2,4.640421271E-1,4.014245868E-1
1.906323386E0,8.338350058E-2,4.714989662E-1,3.960982561E-1
1.908327917E0,8.657929301E-2,4.640421271E-1,3.822498322E-1
1.910332448E0,8.870981634E-2,4.672379196E-1,3.737277389E-1
1.912336979E0,8.870981634E-2,4.640421271E-1,3.630751073E-1
1.914341511E0,9.297087044E-2,4.640421271E-1,3.524224460E-1
1.916346042E0,9.510140121E-2,4.587158263E-1,3.407045603E-1
1.918350573E0,9.510140121E-2,4.608463347E-1,3.279213905E-1
1.920355104E0,9.829718620E-2,4.555200338E-1,3.162035048E-1
1.922359636E0,9.723192453E-2,4.523242414E-1,3.034203351E-1
1.924364167E0,9.936244786E-2,4.480631649E-1,2.895719111E-1
1.926368698E0,9.616666287E-2,4.438021183E-1,2.789192796E-1
1.928373229E0,1.025582403E-1,4.491284490E-1,2.597445250E-1
1.930377761E0,9.829718620E-2,4.469979107E-1,2.490918934E-1
1.932382292E0,1.014929786E-1,4.438021183E-1,2.395045459E-1
1.934386823E0,9.936244786E-2,4.406063259E-1,2.331129611E-1
1.936391354E0,9.936244786E-2,4.342147410E-1,2.192645371E-1
1.938395886E0,9.829718620E-2,4.299536943E-1,2.107424289E-1
1.940400417E0,9.510140121E-2,4.256926477E-1,2.000897974E-1
1.942404948E0,9.723192453E-2,4.256926477E-1,1.894371510E-1
1.944409479E0,8.870981634E-2,4.214316010E-1,1.851761043E-1
1.946414011E0,8.764455467E-2,4.161052704E-1,1.755887270E-1
1.948418542E0,8.657929301E-2,4.150400162E-1,1.734582037E-1
1.950423073E0,8.551402390E-2,4.139747322E-1,1.691971421E-1
1.952427604E0,8.338350058E-2,4.065178931E-1,1.638708264E-1
1.954432136E0,8.125296980E-2,4.043873847E-1,1.606750339E-1
1.956436667E0,7.166559994E-2,4.033221006E-1,1.585445106E-1
1.958441198E0,6.953507662E-2,3.937347233E-1,1.564139873E-1
1.960445729E0,6.633928418E-2,3.905389607E-1,1.532181948E-1
1.962450261E0,6.314349174E-2,3.884084225E-1,1.564139873E-1
1.964454792E0,5.355612189E-2,3.841473758E-1,1.606750339E-1
1.966459323E0,4.929506779E-2,3.830820918E-1,1.638708264E-1
1.968463854E0,4.503401369E-2,3.809515834E-1,1.628055722E-1
1.970468386E0,4.396875203E-2,3.745599985E-1,1.660013646E-1
1.972472917E0,3.651190549E-2,3.702989519E-1,1.755887270E-1
1.974477448E0,2.905506082E-2,3.649726212E-1,1.787845194E-1
1.976481979E0,2.692453377E-2,3.617768288E-1,1.841108352E-1
1.978486511E0,2.159821801E-2,3.585810363E-1,1.905024201E-1
1.980491042E0,1.733716391E-2,3.521894515E-1,1.979592592E-1
1.982495573E0,9.880319238E-3,3.521894515E-1,2.011550516E-1
1.984500104E0,3.488738090E-3,3.447326124E-1,2.064813673E-1
1.986504636E0,-1.837579533E-3,3.372757733E-1,2.139382213E-1
1.988509167E0,-6.098633632E-3,3.362105191E-1,2.203297913E-1
1.990513698E0,-7.163897157E-3,3.308841884E-1,2.288518995E-1
1.992518229E0,-1.355547830E-2,3.223620951E-1,2.384392768E-1
1.994522761E0,-1.568600535E-2,3.223620951E-1,2.405698001E-1
1.996527292E0,-1.994705945E-2,3.127747178E-1,2.533529401E-1
1.998531823E0,-2.314285003E-2,3.127747178E-1,2.597445250E-1
2.000536354E0,-2.633864060E-2,3.010568023E-1,2.672013640E-1
2.002540886E0,-2.740390413E-2,2.989262938E-1,2.672013640E-1
2.004545417E0,-2.953443117E-2,2.914694250E-1,2.799845338E-1
2.006549948E0,-3.273022175E-2,2.861431241E-1,2.810497880E-1
2.008554479E0,-2.846916765E-2,2.818820775E-1,2.821150720E-1
2.010559011E0,-2.740390413E-2,2.765557468E-1,2.895719111E-1
2.012563542E0,-2.846916765E-2,2.722947001E-1,2.938329577E-1
2.014568073E0,-2.740390413E-2,2.669683695E-1,2.938329577E-1
2.016572604E0,-2.740390413E-2,2.659031153E-1,2.980940342E-1
2.018577136E0,-2.633864060E-2,2.584462762E-1,2.980940342E-1
2.020581667E0,-2.527337708E-2,2.605767846E-1,3.055508733E-1
2.022586198E0,-2.207758650E-2,2.573809922E-1,3.002245426E-1
2.024590729E0,-2.101232298E-2,2.531199455E-1,3.034203351E-1
2.026595261E0,-1.675126888E-2,2.509894371E-1,3.002245426E-1
2.028599792E0,-1.249021478E-2,2.520546913E-1,3.012897968E-1
2.030604323E0,-7.163897157E-3,2.531199455E-1,2.948982418E-1
2.032608854E0,-3.968106583E-3,2.499241382E-1,3.023550808E-1
2.034613386E0,-7.723160088E-4,2.541852295E-1,2.948982418E-1
2.036617917E0,5.619265139E-3,2.573809922E-1,2.917024493E-1
2.038622448E0,9.880319238E-3,2.573809922E-1,2.874413729E-1
2.040626979E0,1.840242743E-2,2.541852295E-1,2.789192796E-1
2.042631511E0,1.840242743E-2,2.552504838E-1,2.735929489E-1
2.044636042E0,2.692453377E-2,2.573809922E-1,2.714624405E-1
2.046640573E0,2.905506082E-2,2.616420686E-1,2.640056014E-1
2.048645104E0,3.544664383E-2,2.648378611E-1,2.576140165E-1
2.050649636E0,4.183822125E-2,2.648378611E-1,2.480266392E-1
2.052654167E0,4.396875203E-2,2.701641619E-1,2.395045459E-1
2.054658698E0,5.249086022E-2,2.680336535E-1,2.352434844E-1
2.056663229E0,5.568664521E-2,2.733599544E-1,2.267213762E-1
2.058667761E0,6.314349174E-2,2.765557468E-1,2.181992680E-1
2.060672292E0,6.527401507E-2,2.808167934E-1,2.107424289E-1
2.062676823E0,7.273086160E-2,2.840125859E-1,2.032855749E-1
2.064681354E0,7.486139238E-2,2.957305014E-1,1.958287358E-1
2.066685886E0,7.912244648E-2,2.967957556E-1,1.873066276E-1
2.068690417E0,8.551402390E-2,2.978610098E-1,1.809150428E-1
2.070694948E0,9.190560877E-2,3.042525947E-1,1.745234579E-1
2.072699479E0,9.616666287E-2,3.106441796E-1,1.670666188E-1
2.074704011E0,9.829718620E-2,3.117094338E-1,1.564139873E-1
2.076708542E0,1.025582403E-1,3.149052262E-1,1.553487182E-1
2.078713073E0,1.068192944E-1,3.212968111E-1,1.425655633E-1
2.080717604E0,1.132108793E-1,3.255578578E-1,1.415002942E-1
2.082722136E0,1.142761409E-1,3.298189342E-1,1.308476627E-1
2.084726667E0,1.185372025E-1,3.394062817E-1,1.223255470E-1
2.086731198E0,1.259940416E-1,3.383410275E-1,1.201950088E-1
2.088735729E0,1.291898340E-1,3.489936590E-1,1.169992238E-1
2.090740261E0,1.355814040E-1,3.479284048E-1,1.116729006E-1
2.092744792E0,1.387771964E-1,3.553852439E-1,1.031507924E-1
2.094749323E0,1.398424655E-1,3.596462905E-1,1.010202691E-1
2.096753854E0,1.430382580E-1,3.639073670E-1,9.569394588E-2
2.098758386E0,1.462340504E-1,3.702989519E-1,9.249816090E-2
2.100762917E0,1.472993046E-1,3.766905069E-1,8.930236846E-2
2.102767448E0,1.504950970E-1,3.798862994E-1,8.184552193E-2
2.104771979E0,1.472993046E-1,3.830820918E-1,8.078026026E-2
2.106776511E0,1.526256204E-1,3.894736767E-1,7.545394450E-2
2.108781042E0,1.526256204E-1,3.873431683E-1,7.225815207E-2
2.110787917E0,1.536908895E-1,3.948000073E-1,7.119289041E-2
2.112790782E0,1.504950970E-1,3.948000073E-1,7.012762129E-2
2.114793698E0,1.504950970E-1,3.969305158E-1,6.373604387E-2
2.116796719E0,1.515603662E-1,4.001263082E-1,6.054025516E-2
2.118799896E0,1.504950970E-1,3.990610540E-1,5.947499722E-2
2.120803282E0,1.472993046E-1,3.969305158E-1,5.627920479E-2
2.122806927E0,1.441035271E-1,3.969305158E-1,4.882236198E-2
2.124810834E0,1.419729888E-1,3.916042149E-1,4.882236198E-2
2.126815052E0,1.441035271E-1,3.937347233E-1,4.562657326E-2
2.128819584E0,1.377119422E-1,3.905389607E-1,3.923498839E-2
2.130824375E0,1.387771964E-1,3.905389607E-1,3.923498839E-2
2.132829427E0,1.355814040E-1,3.916042149E-1,3.071287833E-2
2.134834688E0,1.313203573E-1,3.852126300E-1,3.071287833E-2
2.136840157E0,1.291898340E-1,3.852126300E-1,2.858235128E-2
2.138845782E0,1.270593107E-1,3.809515834E-1,2.645182423E-2
2.140851511E0,1.259940416E-1,3.788210452E-1,2.112550661E-2
2.142857292E0,1.196024567E-1,3.766905069E-1,1.792971604E-2
2.144863073E0,1.185372025E-1,3.734947145E-1,1.686445251E-2
2.146867969E0,1.142761409E-1,3.724294603E-1,1.579918899E-2
2.148872500E0,1.142761409E-1,3.671031594E-1,1.366866194E-2
2.150877032E0,1.110803485E-1,3.617768288E-1,1.366866194E-2
2.152881563E0,1.078845561E-1,3.617768288E-1,1.260339841E-2
2.154886094E0,1.057540327E-1,3.585810363E-1,1.153813489E-2
2.156890625E0,1.036235094E-1,3.628420830E-1,7.277081255E-3
2.158895157E0,1.014929786E-1,3.596462905E-1,1.260339841E-2
2.160899688E0,9.829718620E-2,3.543199897E-1,1.047287136E-2
2.162904219E0,9.510140121E-2,3.575157821E-1,9.407607839E-3
2.164908750E0,9.829718620E-2,3.575157821E-1,1.047287136E-2
2.166913282E0,9.297087044E-2,3.532547355E-1,1.260339841E-2
2.168917813E0,9.403613210E-2,3.553852439E-1,9.407607839E-3
2.170922344E0,8.977507800E-2,3.543199897E-1,1.153813489E-2
2.172926875E0,9.297087044E-2,3.575157821E-1,1.153813489E-2
2.174931407E0,8.977507800E-2,3.585810363E-1,1.792971604E-2
2.176935938E0,8.870981634E-2,3.617768288E-1,1.579918899E-2
2.178940469E0,9.084033966E-2,3.596462905E-1,1.473392546E-2
2.180945000E0,8.764455467E-2,3.671031594E-1,1.473392546E-2
2.182949532E0,8.870981634E-2,3.702989519E-1,1.899497956E-2
2.184954063E0,9.403613210E-2,3.724294603E-1,1.792971604E-2
2.186958594E0,8.977507800E-2,3.766905069E-1,2.006024309E-2
2.188963125E0,9.084033966E-2,3.820168376E-1,2.219077013E-2
2.190967657E0,9.297087044E-2,3.884084225E-1,2.645182423E-2
2.192972188E0,9.616666287E-2,3.916042149E-1,2.538656071E-2
2.194976719E0,9.616666287E-2,3.979957998E-1,2.964761667E-2
2.196981250E0,9.936244786E-2,4.065178931E-1,2.538656071E-2
2.198985782E0,1.014929786E-1,4.129094779E-1,2.964761667E-2
2.200990313E0,1.078845561E-1,4.193010628E-1,2.858235128E-2
2.202994844E0,1.078845561E-1,4.267579019E-1,3.177814558E-2
2.204999375E0,1.110803485E-1,4.331494868E-1,2.964761667E-2
2.207003907E0,1.174719334E-1,4.395410717E-1,3.603919968E-2
2.209008438E0,1.196024567E-1,4.459326565E-1,2.964761667E-2
2.211012969E0,1.206677258E-1,4.576505423E-1,3.177814558E-2
2.213017500E0,1.270593107E-1,4.661726654E-1,2.751708776E-2
2.215022032E0,1.323856264E-1,4.746947587E-1,2.751708776E-2
2.217026563E0,1.387771964E-1,4.800210893E-1,2.858235128E-2
2.219031094E0,1.419729888E-1,4.938695133E-1,2.751708776E-2
2.221035625E0,1.441035271E-1,5.013263226E-1,2.325603366E-2
2.223040157E0,1.515603662E-1,5.098484159E-1,1.686445251E-2
2.225044688E0,1.568866819E-1,5.194358230E-1,1.792971604E-2
2.227049219E0,1.611477435E-1,5.322189927E-1,1.047287136E-2
2.229053750E0,1.611477435E-1,5.386105180E-1,1.153813489E-2
2.231058282E0,1.664740592E-1,5.471326709E-1,6.211817730E-3
2.233062813E0,1.728656292E-1,5.609810948E-1,8.342344314E-3
2.235067344E0,1.792572141E-1,5.726989508E-1,4.081291147E-3
2.237071875E0,1.803224832E-1,5.822863579E-1,-1.245026477E-3
2.239076407E0,1.845835298E-1,5.982652903E-1,-4.440817051E-3
2.241080938E0,1.888445914E-1,6.067873836E-1,-5.506080575E-3
2.243085469E0,1.931056380E-1,6.163747907E-1,-8.701871149E-3
2.245090000E0,1.952361763E-1,6.323537230E-1,-1.615871675E-2
2.247094532E0,1.994972229E-1,6.408758163E-1,-1.828924380E-2
2.249099063E0,2.048235387E-1,6.504632235E-1,-2.041977085E-2
2.251103594E0,2.048235387E-1,6.611158252E-1,-2.148503438E-2
2.253108125E0,2.101498544E-1,6.728337407E-1,-3.107240610E-2
2.255112657E0,2.133456469E-1,6.877474189E-1,-3.107240610E-2
2.257117188E0,2.122803926E-1,6.930737495E-1,-3.746398538E-2
2.259121719E0,2.144109160E-1,7.090526819E-1,-3.852924705E-2
2.261126250E0,2.165414393E-1,7.143790126E-1,-4.172503948E-2
2.263130782E0,2.197372317E-1,7.292926908E-1,-4.705135524E-2
2.265135313E0,2.218677551E-1,7.410106063E-1,-5.024714768E-2
2.267139844E0,2.271940708E-1,7.474021912E-1,-5.344293639E-2
2.269144375E0,2.250635475E-1,7.591201067E-1,-5.770399049E-2
2.271148907E0,2.293246090E-1,7.708380222E-1,-6.409557164E-2
2.273153438E0,2.261288166E-1,7.836211324E-1,-6.729137152E-2
2.275157969E0,2.282593399E-1,7.964043021E-1,-7.261768728E-2
2.277162500E0,2.303898633E-1,8.006653786E-1,-7.368294895E-2
2.279167032E0,2.314551324E-1,8.123832941E-1,-7.474821806E-2
2.281171563E0,2.261288166E-1,8.230358958E-1,-7.900926471E-2
2.283176094E0,2.325203866E-1,8.315579891E-1,-8.220505714E-2
2.285180625E0,2.293246090E-1,8.400801420E-1,-8.327032626E-2
2.287185157E0,2.293246090E-1,8.517979980E-1,-8.753137290E-2
2.289189688E0,2.325203866E-1,8.581895828E-1,-8.966190368E-2
2.291194219E0,2.293246090E-1,8.688422441E-1,-9.072716534E-2
2.293198750E0,2.314551324E-1,8.773643374E-1,-9.498821944E-2
2.295203282E0,2.303898633E-1,8.816254139E-1,-9.924927354E-2
2.297207813E0,2.303898633E-1,8.933432698E-1,-9.818401188E-2
2.299212344E0,2.314551324E-1,8.976043463E-1,-9.924927354E-2
2.301216875E0,2.346509248E-1,9.093222618E-1,-1.035103276E-1
2.303221407E0,2.293246090E-1,9.125180244E-1,-1.109671742E-1
2.305225938E0,2.314551324E-1,9.189096093E-1,-1.067061201E-1
2.307230469E0,2.271940708E-1,9.221054316E-1,-1.109671742E-1
2.309235000E0,2.314551324E-1,9.221054316E-1,-1.077713817E-1
2.311239532E0,2.303898633E-1,9.338232875E-1,-1.130976975E-1
2.313244063E0,2.325203866E-1,9.370191097E-1,-1.109671742E-1
2.315248594E0,2.282593399E-1,9.348886013E-1,-1.162934899E-1
2.317253125E0,2.271940708E-1,9.391496181E-1,-1.194892824E-1
2.319257657E0,2.314551324E-1,9.391496181E-1,-1.152282283E-1
2.321262188E0,2.271940708E-1,9.380843639E-1,-1.184240207E-1
2.323266719E0,2.239982784E-1,9.402148724E-1,-1.194892824E-1
2.325271250E0,2.229330242E-1,9.402148724E-1,-1.184240207E-1
2.327275782E0,2.239982784E-1,9.402148724E-1,-1.237503365E-1
2.329280313E0,2.239982784E-1,9.380843639E-1,-1.237503365E-1
2.331284844E0,2.208024859E-1,9.370191097E-1,-1.248155981E-1
2.333289375E0,2.218677551E-1,9.327580333E-1,-1.312071681E-1
2.335293907E0,2.208024859E-1,9.348886013E-1,-1.269461215E-1
2.337298438E0,2.186719626E-1,9.295622706E-1,-1.312071681E-1
2.339302969E0,2.176067084E-1,9.263664484E-1,-1.312071681E-1
2.341307500E0,2.122803926E-1,9.210401773E-1,-1.290766448E-1
2.343312032E0,2.133456469E-1,9.135832787E-1,-1.354682148E-1
2.345316563E0,2.122803926E-1,9.125180244E-1,-1.354682148E-1
2.347321094E0,2.080193311E-1,9.050611854E-1,-1.386640072E-1
2.349325625E0,2.080193311E-1,9.008001685E-1,-1.418597996E-1
2.351330157E0,2.058888078E-1,8.965390921E-1,-1.471861154E-1
2.353334688E0,2.026930153E-1,8.922780156E-1,-1.471861154E-1
2.355339219E0,2.048235387E-1,8.848211765E-1,-1.482513845E-1
2.357343750E0,1.963014305E-1,8.731033206E-1,-1.503819078E-1
2.359348282E0,1.952361763E-1,8.677769899E-1,-1.525124311E-1
2.361352813E0,1.909751147E-1,8.645811677E-1,-1.589040160E-1
2.363357344E0,1.920403838E-1,8.549938202E-1,-1.557082236E-1
2.365361875E0,1.867140532E-1,8.507327437E-1,-1.557082236E-1
2.367366407E0,1.845835298E-1,8.422106504E-1,-1.578387469E-1
2.369370938E0,1.803224832E-1,8.379495740E-1,-1.589040160E-1
2.371375469E0,1.781919599E-1,8.304927349E-1,-1.610345393E-1
2.373380000E0,1.760614216E-1,8.241011500E-1,-1.589040160E-1
2.375384532E0,1.707351059E-1,8.177095652E-1,-1.631650776E-1
2.377389063E0,1.664740592E-1,8.166443110E-1,-1.684913933E-1
2.379393594E0,1.611477435E-1,8.091874719E-1,-1.599692851E-1
2.381398125E0,1.536908895E-1,8.049264550E-1,-1.631650776E-1
2.383402657E0,1.547561586E-1,7.953390479E-1,-1.684913933E-1
2.385407188E0,1.451687813E-1,7.974695563E-1,-1.610345393E-1
2.387411719E0,1.430382580E-1,7.953390479E-1,-1.631650776E-1
2.389416250E0,1.387771964E-1,7.900127172E-1,-1.599692851E-1
2.391420782E0,1.355814040E-1,7.836211324E-1,-1.599692851E-1
2.393425313E0,1.291898340E-1,7.825558782E-1,-1.620998085E-1
2.395429844E0,1.217329800E-1,7.814906240E-1,-1.589040160E-1
2.397434375E0,1.153414026E-1,7.761642933E-1,-1.567734927E-1
2.399438907E0,1.121456176E-1,7.697727084E-1,-1.546429694E-1
2.401443438E0,1.068192944E-1,7.729685307E-1,-1.493166536E-1
2.403447969E0,9.829718620E-2,7.697727084E-1,-1.450555921E-1
2.405452500E0,9.510140121E-2,7.665769458E-1,-1.407945305E-1
2.407457032E0,9.190560877E-2,7.601853609E-1,-1.429250687E-1
2.409461563E0,8.551402390E-2,7.623158693E-1,-1.375987530E-1
2.411466094E0,8.018770814E-2,7.612506151E-1,-1.344029605E-1
2.413470625E0,7.486139238E-2,7.580548525E-1,-1.248155981E-1
2.415475157E0,6.633928418E-2,7.580548525E-1,-1.237503365E-1
2.417479688E0,6.740454584E-2,7.537937760E-1,-1.184240207E-1
2.419484219E0,5.675191432E-2,7.495326996E-1,-1.152282283E-1
2.421488750E0,5.249086022E-2,7.452716827E-1,-1.045755893E-1
2.423493282E0,5.142559111E-2,7.431411147E-1,-1.056408584E-1
2.425497813E0,4.929506779E-2,7.442064285E-1,-1.013798043E-1
2.427502344E0,4.290348291E-2,7.388800979E-1,-9.605348110E-2
2.429506875E0,3.544664383E-2,7.388800979E-1,-9.179243445E-2
2.431511407E0,3.225085139E-2,7.346190214E-1,-8.540084958E-2
2.433515938E0,2.905506082E-2,7.239664197E-1,-7.900926471E-2
2.435520469E0,2.159821801E-2,7.250316739E-1,-7.261768728E-2
2.437525000E0,1.414137334E-2,7.175748348E-1,-6.622610986E-2
2.439529532E0,9.880319238E-3,7.122485042E-1,-5.983451754E-2
2.441534063E0,5.619265139E-3,7.090526819E-1,-5.557346344E-2
2.443538594E0,6.684528664E-3,7.026611567E-1,-5.344293639E-2
2.445543125E0,-1.837579533E-3,6.898779869E-1,-4.705135524E-2
2.447547657E0,-5.033370107E-3,6.834864020E-1,-3.746398538E-2
2.449552188E0,-9.294424206E-3,6.770948172E-1,-3.426819295E-2
2.451556719E0,-1.568600535E-2,6.675074100E-1,-3.107240610E-2
2.453561250E0,-1.888179593E-2,6.611158252E-1,-2.574608847E-2
2.455565782E0,-2.420811355E-2,6.483327150E-1,-2.255029790E-2
2.457570313E0,-2.953443117E-2,6.334189773E-1,-1.402818970E-2
2.459574844E0,-3.486074880E-2,6.312884688E-1,-1.189766265E-2
2.461579375E0,-4.125232995E-2,6.227663755E-1,-2.310290001E-3
2.463583907E0,-4.231759906E-2,6.110484600E-1,-1.245026477E-3
2.465588438E0,-4.977443814E-2,5.982652903E-1,1.950764097E-3
2.467592969E0,-4.977443814E-2,5.876126885E-1,6.211817730E-3
2.469597500E0,-5.723128468E-2,5.769600272E-1,1.153813489E-2
2.471602032E0,-6.255760044E-2,5.609810948E-1,1.899497956E-2
2.473606563E0,-6.255760044E-2,5.439368486E-1,2.112550661E-2
2.475611094E0,-7.107971609E-2,5.322189927E-1,2.325603366E-2
2.477615625E0,-7.534076273E-2,5.183705688E-1,2.858235128E-2
2.479620157E0,-7.853655517E-2,5.023915768E-1,3.177814558E-2
2.481624688E0,-8.173234761E-2,4.853473902E-1,3.390867263E-2
2.483629219E0,-8.492814004E-2,4.693684578E-1,4.136551917E-2
2.485633750E0,-8.812393248E-2,4.523242414E-1,4.456130788E-2
2.487638282E0,-9.877656400E-2,4.310189486E-1,5.095288903E-2
2.489642813E0,-9.664604068E-2,4.171705246E-1,4.669183493E-2
2.491647344E0,-1.051681489E-1,3.979957998E-1,5.308341607E-2
2.493651875E0,-1.062334105E-1,3.830820918E-1,5.201815069E-2
2.495656407E0,-1.115597263E-1,3.639073670E-1,5.947499722E-2
2.497660938E0,-1.168860421E-1,3.447326124E-1,6.054025516E-2
2.499665469E0,-1.147555187E-1,3.234273493E-1,6.054025516E-2
2.501670000E0,-1.200818345E-1,3.074483871E-1,6.054025516E-2
2.503674532E0,-1.222123653E-1,2.840125859E-1,6.693183631E-2
2.505679063E0,-1.296692044E-1,2.669683695E-1,6.799709797E-2
2.507683594E0,-1.286039352E-1,2.499241382E-1,6.799709797E-2
2.509688177E0,-1.317997277E-1,2.296841294E-1,7.012762129E-2
2.511692761E0,-1.360607892E-1,2.105093747E-1,7.651920617E-2
2.513697344E0,-1.349955201E-1,1.923999041E-1,7.332341373E-2
2.515701927E0,-1.371260583E-1,1.721598953E-1,7.332341373E-2
2.517706511E0,-1.413871050E-1,1.529851556E-1,7.864972949E-2
2.519711094E0,-1.456481516E-1,1.370061934E-1,8.397605270E-2
2.521715677E0,-1.499092132E-1,1.231577769E-1,7.864972949E-2
2.523720261E0,-1.456481516E-1,1.093093529E-1,8.078026026E-2
2.525724844E0,-1.488439441E-1,9.013461322E-2,8.184552193E-2
2.527729427E0,-1.552355289E-1,7.095986605E-2,8.291079104E-2
2.529734011E0,-1.531050056E-1,6.243776157E-2,8.291079104E-2
2.531738594E0,-1.563007981E-1,4.219775274E-2,8.504131436E-2
2.533743177E0,-1.563007981E-1,2.728406340E-2,8.930236846E-2
2.535747761E0,-1.626923680E-1,1.450090017E-2,8.717183769E-2
2.537752344E0,-1.648229063E-1,3.848264692E-3,8.823710680E-2
2.539756927E0,-1.669534296E-1,-5.739106797E-3,8.823710680E-2
2.541761511E0,-1.690839529E-1,-1.426121499E-2,8.610657603E-2
2.543766094E0,-1.722797453E-1,-3.130543232E-2,9.143289924E-2
2.545770677E0,-1.744102687E-1,-4.195806757E-2,9.249816090E-2
2.547775261E0,-1.690839529E-1,-4.941490665E-2,8.823710680E-2
2.549779844E0,-1.744102687E-1,-6.219806895E-2,9.356342256E-2
2.551784427E0,-1.786713302E-1,-6.858965755E-2,9.356342256E-2
2.553789011E0,-1.776060611E-1,-7.924228907E-2,9.782447666E-2
2.555793594E0,-1.818671227E-1,-8.882965893E-2,9.888973832E-2
2.557798177E0,-1.808018535E-1,-9.841703624E-2,9.675921500E-2
2.559802761E0,-1.871934384E-1,-1.069391444E-1,1.042160541E-1
2.561807344E0,-1.893239617E-1,-1.143959835E-1,1.042160541E-1
2.563811927E0,-1.914544851E-1,-1.239833608E-1,1.063465849E-1
2.565816511E0,-1.893239617E-1,-1.314402074E-1,1.074118465E-1
2.567821042E0,-1.935850233E-1,-1.410275847E-1,1.138034314E-1
2.569825573E0,-1.978460699E-1,-1.506149471E-1,1.127381623E-1
2.571830104E0,-1.978460699E-1,-1.548760086E-1,1.138034314E-1
2.573834636E0,-2.010418624E-1,-1.633981168E-1,1.191297472E-1
2.575839167E0,-2.042376548E-1,-1.719202250E-1,1.159339547E-1
2.577843698E0,-2.042376548E-1,-1.751160175E-1,1.212602705E-1
2.579848229E0,-2.053029239E-1,-1.857686490E-1,1.212602705E-1
2.581852761E0,-2.127597630E-1,-1.921602339E-1,1.201950088E-1
2.583857292E0,-2.170208097E-1,-1.974865496E-1,1.223255470E-1
2.585861823E0,-2.148902863E-1,-2.017475963E-1,1.212602705E-1
2.587866354E0,-2.180860788E-1,-2.092044502E-1,1.223255470E-1
2.589870886E0,-2.180860788E-1,-2.124002427E-1,1.233908013E-1
2.591875417E0,-2.191513479E-1,-2.187918127E-1,1.201950088E-1
2.593879948E0,-2.212818712E-1,-2.283791900E-1,1.201950088E-1
2.595884479E0,-2.234123945E-1,-2.283791900E-1,1.201950088E-1
2.597889011E0,-2.308692336E-1,-2.347707748E-1,1.180644855E-1
2.599893542E0,-2.298039794E-1,-2.454234064E-1,1.180644855E-1
2.601898073E0,-2.276734561E-1,-2.443581522E-1,1.148686931E-1
2.603902604E0,-2.319345027E-1,-2.486191988E-1,1.180644855E-1
2.605907136E0,-2.340650260E-1,-2.550107539E-1,1.138034314E-1
2.607911667E0,-2.340650260E-1,-2.614023387E-1,1.148686931E-1
2.609916198E0,-2.340650260E-1,-2.645981312E-1,1.148686931E-1
2.611920729E0,-2.329997718E-1,-2.667286396E-1,1.159339547E-1
2.613925261E0,-2.329997718E-1,-2.709897161E-1,1.127381623E-1
2.615929792E0,-2.361955643E-1,-2.741855085E-1,1.127381623E-1
2.617934323E0,-2.383260876E-1,-2.805770636E-1,1.127381623E-1
2.619938854E0,-2.393913567E-1,-2.859033942E-1,1.127381623E-1
2.621943386E0,-2.404566109E-1,-2.901644409E-1,1.138034314E-1
2.623947917E0,-2.393913567E-1,-2.954907715E-1,1.138034314E-1
2.625952448E0,-2.361955643E-1,-3.040128648E-1,1.116729006E-1
2.627956979E0,-2.415218800E-1,-3.072086573E-1,1.138034314E-1
2.629961511E0,-2.415218800E-1,-3.093391955E-1,1.138034314E-1
2.631966042E0,-2.404566109E-1,-3.125349879E-1,1.127381623E-1
2.633970573E0,-2.457829267E-1,-3.157307804E-1,1.159339547E-1
2.635975104E0,-2.436524034E-1,-3.242528737E-1,1.159339547E-1
2.637979636E0,-2.425871342E-1,-3.263834119E-1,1.159339547E-1
2.639984167E0,-2.457829267E-1,-3.306444585E-1,1.169992238E-1
2.641988698E0,-2.500439882E-1,-3.338402510E-1,1.212602705E-1
2.643993229E0,-2.521744967E-1,-3.391665816E-1,1.212602705E-1
2.645997761E0,-2.543050349E-1,-3.402318358E-1,1.212602705E-1
2.648002292E0,-2.543050349E-1,-3.434276283E-1,1.233908013E-1
2.650006823E0,-2.585660517E-1,-3.476886749E-1,1.244560704E-1
2.652011354E0,-2.606965899E-1,-3.508844674E-1,1.297823936E-1
2.654015886E0,-2.575007975E-1,-3.530150056E-1,1.297823936E-1
2.656020417E0,-2.638923824E-1,-3.604718447E-1,1.361739784E-1
2.658024948E0,-2.692187130E-1,-3.647328913E-1,1.404350251E-1
2.660029479E0,-2.702839673E-1,-3.657981455E-1,1.404350251E-1
2.662034011E0,-2.681534290E-1,-3.668634295E-1,1.415002942E-1
2.664038542E0,-2.777408063E-1,-3.721897304E-1,1.457613558E-1
2.666043073E0,-2.788060606E-1,-3.732550144E-1,1.532181948E-1
2.668047604E0,-2.788060606E-1,-3.839076459E-1,1.521529257E-1
2.670052136E0,-2.830671370E-1,-3.892339468E-1,1.596097797E-1
2.672056667E0,-2.862628996E-1,-3.902992308E-1,1.628055722E-1
2.674061198E0,-2.862628996E-1,-3.988213241E-1,1.681318879E-1
2.676065729E0,-2.915892303E-1,-4.030823708E-1,1.734582037E-1
2.678070261E0,-2.894586921E-1,-4.073434472E-1,1.745234579E-1
2.680074792E0,-2.937197685E-1,-4.137350023E-1,1.830455810E-1
2.682079323E0,-2.937197685E-1,-4.169307947E-1,1.894371510E-1
2.684083854E0,-2.979808152E-1,-4.286487103E-1,1.873066276E-1
2.686088386E0,-2.979808152E-1,-4.339750111E-1,1.915676743E-1
2.688092917E0,-2.969155610E-1,-4.403665960E-1,1.979592592E-1
2.690097448E0,-2.990460694E-1,-4.467581809E-1,2.054161131E-1
2.692101979E0,-3.011766076E-1,-4.542150199E-1,2.086118907E-1
2.694106511E0,-2.979808152E-1,-4.616718590E-1,2.118076831E-1
2.696111042E0,-2.979808152E-1,-4.701939821E-1,2.213950604E-1
2.698115573E0,-2.969155610E-1,-4.765855670E-1,2.245908529E-1
2.700120104E0,-2.958502769E-1,-4.829771519E-1,2.320476919E-1
2.702124636E0,-2.947850227E-1,-4.904339910E-1,2.405698001E-1
2.704129167E0,-2.894586921E-1,-4.968255758E-1,2.437655926E-1
2.706133698E0,-2.937197685E-1,-5.021519065E-1,2.469613850E-1
2.708138229E0,-2.937197685E-1,-5.096087456E-1,2.554834783E-1
2.710142761E0,-2.841323912E-1,-5.191961527E-1,2.597445250E-1
2.712147292E0,-2.851976454E-1,-5.223919153E-1,2.703971565E-1
2.714151823E0,-2.798713446E-1,-5.298487544E-1,2.767887414E-1
2.716156354E0,-2.873281837E-1,-5.373055935E-1,2.885066569E-1
2.718160886E0,-2.745450139E-1,-5.447624326E-1,2.906371653E-1
2.720165417E0,-2.756102681E-1,-5.511540174E-1,3.002245426E-1
2.722169948E0,-2.713492215E-1,-5.586108565E-1,3.076813817E-1
2.724174479E0,-2.692187130E-1,-5.660677552E-1,3.172687590E-1
2.726179011E0,-2.681534290E-1,-5.777856112E-1,3.204645514E-1
2.728183542E0,-2.606965899E-1,-5.809814334E-1,3.193992972E-1
2.730188073E0,-2.543050349E-1,-5.926992893E-1,3.279213905E-1
2.732192604E0,-2.532397807E-1,-6.033519506E-1,3.321824670E-1
2.734197136E0,-2.500439882E-1,-6.076130271E-1,3.300519288E-1
2.736201667E0,-2.393913567E-1,-6.172003746E-1,3.343129754E-1
2.738206198E0,-2.351302952E-1,-6.257224679E-1,3.353782296E-1
2.740210729E0,-2.329997718E-1,-6.363751292E-1,3.364435136E-1
2.742215261E0,-2.266081870E-1,-6.438319683E-1,3.332477212E-1
2.744219792E0,-2.202166021E-1,-6.502235532E-1,3.279213905E-1
2.746224323E0,-2.148902863E-1,-6.608761549E-1,3.279213905E-1
2.748228854E0,-2.084987015E-1,-6.693983078E-1,3.215298057E-1
2.750233386E0,-1.989113390E-1,-6.736593246E-1,3.162035048E-1
2.752237917E0,-1.935850233E-1,-6.843119860E-1,3.119424582E-1
2.754242448E0,-1.871934384E-1,-6.917688251E-1,3.034203351E-1
2.756246979E0,-1.786713302E-1,-7.002909184E-1,3.012897968E-1
2.758251511E0,-1.712144911E-1,-7.034867406E-1,2.842455804E-1
2.760256042E0,-1.637576371E-1,-7.109435797E-1,2.789192796E-1
2.762260573E0,-1.573660523E-1,-7.184004188E-1,2.682666481E-1
2.764265104E0,-1.477786899E-1,-7.194656730E-1,2.576140165E-1
2.766269636E0,-1.360607892E-1,-7.247920036E-1,2.437655926E-1
2.768274167E0,-1.339302659E-1,-7.258572578E-1,2.331129611E-1
2.770278698E0,-1.275386810E-1,-7.301183343E-1,2.213950604E-1
2.772283229E0,-1.179513037E-1,-7.269225121E-1,2.096771598E-1
2.774287761E0,-1.051681489E-1,-7.311835885E-1,1.936982125E-1
2.776292292E0,-9.984182566E-2,-7.290530205E-1,1.841108352E-1
2.778296823E0,-9.558077157E-2,-7.269225121E-1,1.723929346E-1
2.780301354E0,-8.492814004E-2,-7.258572578E-1,1.606750339E-1
2.782305886E0,-7.853655517E-2,-7.247920036E-1,1.436308175E-1
2.784310417E0,-7.214497775E-2,-7.205309272E-1,1.319129318E-1
2.786314948E0,-6.468813121E-2,-7.141393423E-1,1.201950088E-1
2.788319479E0,-6.255760044E-2,-7.056172490E-1,1.074118465E-1
2.790324011E0,-5.510076135E-2,-6.981604099E-1,9.249816090E-2
2.792328542E0,-4.764391482E-2,-6.938993335E-1,7.971499860E-2
2.794333073E0,-4.231759906E-2,-6.843119860E-1,6.799709797E-2
2.796337604E0,-3.699127585E-2,-6.747246385E-1,6.267078221E-2
2.798342136E0,-2.953443117E-2,-6.598109007E-1,4.882236198E-2
2.800346667E0,-2.633864060E-2,-6.491582990E-1,3.923498839E-2
2.802351198E0,-2.420811355E-2,-6.374403834E-1,3.177814558E-2
2.804355729E0,-1.994705945E-2,-6.225267053E-1,2.538656071E-2
2.806360261E0,-1.249021478E-2,-6.086782813E-1,1.153813489E-2
2.808364792E0,-1.142495126E-2,-5.958951116E-1,6.211817730E-3
2.810369323E0,-9.294424206E-3,-5.788508654E-1,1.950764097E-3
2.812373854E0,-7.163897157E-3,-5.639371872E-1,-8.701871149E-3
2.814378386E0,-5.033370107E-3,-5.479582548E-1,-1.402818970E-2
2.816382917E0,-2.902843058E-3,-5.319793224E-1,-2.041977085E-2
2.818387448E0,1.358211040E-3,-5.160003304E-1,-2.574608847E-2
2.820391979E0,2.929475158E-4,-5.000213981E-1,-2.681135200E-2
2.822396511E0,3.488738090E-3,-4.808466136E-1,-2.894187905E-2
2.824401042E0,3.488738090E-3,-4.584760964E-1,-3.426819295E-2
2.826405573E0,2.423474565E-3,-4.393013418E-1,-3.852924705E-2
2.828410104E0,6.684528664E-3,-4.179960787E-1,-3.746398538E-2
2.830414636E0,1.358211040E-3,-4.020171165E-1,-4.172503948E-2
2.832419167E0,6.684528664E-3,-3.807118535E-1,-4.385556281E-2
2.834423698E0,4.554001614E-3,-3.604718447E-1,-4.492082819E-2
2.836428229E0,3.488738090E-3,-3.402318358E-1,-4.492082819E-2
2.838432761E0,7.749792188E-3,-3.210570812E-1,-4.705135524E-2
2.840437292E0,3.488738090E-3,-3.040128648E-1,-4.598609358E-2
2.842441823E0,-7.723160088E-4,-2.763160169E-1,-4.705135524E-2
2.844446354E0,2.929475158E-4,-2.560760081E-1,-4.279030114E-2
2.846450886E0,-1.837579533E-3,-2.358360291E-1,-4.279030114E-2
2.848455417E0,-5.033370107E-3,-2.166612893E-1,-4.385556281E-2
2.850459948E0,-8.229160681E-3,-1.953560263E-1,-3.959450871E-2
2.852464479E0,-9.294424206E-3,-1.719202250E-1,-3.746398538E-2
2.854469011E0,-1.249021478E-2,-1.538107395E-1,-3.852924705E-2
2.856473542E0,-1.675126888E-2,-1.335707307E-1,-3.320293501E-2
2.858478073E0,-1.888179593E-2,-1.175917760E-1,-2.574608847E-2
2.860482604E0,-2.207758650E-2,-9.309072047E-2,-2.148503438E-2
2.862487136E0,-3.166496009E-2,-7.711176574E-2,-1.402818970E-2
2.864491667E0,-3.273022175E-2,-5.687175319E-2,-9.767134674E-3
2.866496198E0,-3.379548341E-2,-3.769701347E-2,-4.440817051E-3
2.868500729E0,-3.805654123E-2,-1.958753355E-2,1.950764097E-3
2.870505261E0,-4.338286072E-2,-2.543316456E-3,6.211817730E-3
2.872509792E0,-4.444812238E-2,9.174582548E-3,1.366866194E-2
2.874514323E0,-4.870917648E-2,2.195774391E-2,1.899497956E-2
2.876518854E0,-4.551338404E-2,4.113249108E-2,2.538656071E-2
2.878523386E0,-5.083970726E-2,5.604618415E-2,2.645182423E-2
2.880527917E0,-5.829654634E-2,6.882933527E-2,3.284341097E-2
2.882532448E0,-5.723128468E-2,7.841671258E-2,3.816972673E-2
2.884536979E0,-5.829654634E-2,9.226513654E-2,4.456130788E-2
2.886541511E0,-5.723128468E-2,1.039830372E-1,4.669183493E-2
2.888546042E0,-5.936181545E-2,1.157009378E-1,4.775709659E-2
2.890550573E0,-6.255760044E-2,1.199619845E-1,5.308341607E-2
2.892555104E0,-6.255760044E-2,1.316798776E-1,5.627920479E-2
2.894559636E0,-5.829654634E-2,1.465935707E-1,5.627920479E-2
2.896564167E0,-5.936181545E-2,1.529851556E-1,6.160552427E-2
2.898568698E0,-5.723128468E-2,1.540504098E-1,6.054025516E-2
2.900573282E0,-5.616602302E-2,1.657683104E-1,6.373604387E-2
2.902577865E0,-5.297023058E-2,1.742904186E-1,6.267078221E-2
2.904582448E0,-5.297023058E-2,1.785514802E-1,6.480130553E-2
2.906587032E0,-5.083970726E-2,1.806820035E-1,6.586657465E-2
2.908591615E0,-4.764391482E-2,1.881388426E-1,6.693183631E-2
2.910596198E0,-4.657865316E-2,1.913346350E-1,6.693183631E-2
2.912600782E0,-4.338286072E-2,1.977262199E-1,6.480130553E-2
2.914605365E0,-4.125232995E-2,1.998567432E-1,6.693183631E-2
2.916609948E0,-3.805654123E-2,2.041178048E-1,6.693183631E-2
2.918614532E0,-3.592601418E-2,2.083788514E-1,6.586657465E-2
2.920619115E0,-3.486074880E-2,2.073135972E-1,6.054025516E-2
2.922623698E0,-2.846916765E-2,2.126399130E-1,6.160552427E-2
2.924628282E0,-2.633864060E-2,2.115746439E-1,6.373604387E-2
2.926632865E0,-2.314285003E-2,2.190314829E-1,5.947499722E-2
2.928637448E0,-2.207758650E-2,2.126399130E-1,5.947499722E-2
2.930642032E0,-1.568600535E-2,2.158356905E-1,5.521394312E-2
2.932646615E0,-1.355547830E-2,2.158356905E-1,5.627920479E-2
2.934651198E0,-9.294424206E-3,2.137051672E-1,5.627920479E-2
2.936655782E0,-6.098633632E-3,2.126399130E-1,5.521394312E-2
2.938660365E0,3.488738090E-3,2.147704363E-1,5.095288903E-2
2.940664948E0,3.488738090E-3,2.094441205E-1,5.308341607E-2
2.942669532E0,5.619265139E-3,2.115746439E-1,5.095288903E-2
2.944674115E0,1.307610981E-2,2.115746439E-1,5.308341607E-2
2.946678698E0,1.627190039E-2,2.073135972E-1,4.669183493E-2
2.948683282E0,1.946769096E-2,1.998567432E-1,4.775709659E-2
2.950687865E0,2.585927211E-2,1.998567432E-1,4.882236198E-2
2.952692448E0,2.905506082E-2,1.977262199E-1,4.882236198E-2
2.954697032E0,3.225085139E-2,1.945304275E-1,4.882236198E-2
2.956701615E0,3.438137472E-2,1.870735884E-1,5.095288903E-2
2.958706146E0,4.077295959E-2,1.860083193E-1,4.562657326E-2
2.960710677E0,4.396875203E-2,1.817472577E-1,4.775709659E-2
2.962715209E0,4.822980613E-2,1.753556877E-1,4.669183493E-2
2.964719740E0,5.249086022E-2,1.710946262E-1,4.775709659E-2
2.966724271E0,5.462138355E-2,1.668335795E-1,4.562657326E-2
2.968728802E0,6.207823008E-2,1.593767256E-1,4.669183493E-2
2.970733334E0,6.527401507E-2,1.519198865E-1,4.988762736E-2
2.972737865E0,6.527401507E-2,1.497893631E-1,4.775709659E-2
2.974742396E0,7.166559994E-2,1.370061934E-1,4.988762736E-2
2.976746927E0,7.166559994E-2,1.327451468E-1,5.201815069E-2
2.978751459E0,7.699191570E-2,1.231577769E-1,4.562657326E-2
2.980755990E0,7.699191570E-2,1.220925227E-1,4.775709659E-2
2.982760521E0,7.805718482E-2,1.157009378E-1,4.669183493E-2
2.984765052E0,8.018770814E-2,1.018525064E-1,4.669183493E-2
2.986769584E0,8.338350058E-2,9.865672141E-2,4.456130788E-2
2.988774115E0,8.764455467E-2,8.693882078E-2,4.562657326E-2
2.990778646E0,8.551402390E-2,7.948197424E-2,4.562657326E-2
2.992783177E0,8.657929301E-2,6.882933527E-2,4.456130788E-2
2.994787709E0,9.190560877E-2,6.243776157E-2,4.030025378E-2
2.996792240E0,8.870981634E-2,5.391565338E-2,4.243078083E-2
2.998796771E0,8.870981634E-2,4.432828352E-2,3.816972673E-2
3.000801302E0,8.764455467E-2,3.261038288E-2,3.923498839E-2
3.002805834E0,8.977507800E-2,2.515353262E-2,3.603919968E-2
3.004810365E0,9.297087044E-2,1.663142629E-2,3.710446507E-2
3.006814896E0,8.977507800E-2,7.044055499E-3,3.710446507E-2
3.008819427E0,9.190560877E-2,-3.608579980E-3,3.390867263E-2
3.010823959E0,8.657929301E-2,-1.426121499E-2,3.497393429E-2
3.012828490E0,8.657929301E-2,-1.958753355E-2,3.284341097E-2
3.014833021E0,8.551402390E-2,-2.597911470E-2,3.071287833E-2
3.016837552E0,8.551402390E-2,-3.769701347E-2,3.390867263E-2
3.018842084E0,8.125296980E-2,-4.728438333E-2,2.964761667E-2
3.020846615E0,7.699191570E-2,-5.474122986E-2,2.964761667E-2
3.022851146E0,8.125296980E-2,-6.752439588E-2,3.390867263E-2
3.024855677E0,7.805718482E-2,-7.711176574E-2,3.071287833E-2
3.026860209E0,7.379612327E-2,-8.669913560E-2,2.858235128E-2
3.028864740E0,7.699191570E-2,-9.202545136E-2,2.964761667E-2
3.030869271E0,7.379612327E-2,-1.016128287E-1,2.858235128E-2
3.032873802E0,6.846980751E-2,-1.112001985E-1,2.964761667E-2
3.034878334E0,7.166559994E-2,-1.197223067E-1,2.219077013E-2
3.036882865E0,7.060033828E-2,-1.293096840E-1,2.538656071E-2
3.038887396E0,6.527401507E-2,-1.388970613E-1,2.645182423E-2
3.040891927E0,6.101296842E-2,-1.431581080E-1,2.006024309E-2
3.042896459E0,5.994769931E-2,-1.527454853E-1,2.219077013E-2
3.044900990E0,5.994769931E-2,-1.559412777E-1,2.112550661E-2
3.046905521E0,5.994769931E-2,-1.580718011E-1,2.112550661E-2
3.048910052E0,5.568664521E-2,-1.687244326E-1,2.112550661E-2
3.050914584E0,5.355612189E-2,-1.708549559E-1,1.899497956E-2
3.052919115E0,5.462138355E-2,-1.751160175E-1,1.579918899E-2
3.054923646E0,5.036032945E-2,-1.761812866E-1,1.899497956E-2
3.056928177E0,5.249086022E-2,-1.825728565E-1,1.686445251E-2
3.058932709E0,5.036032945E-2,-1.878991723E-1,2.006024309E-2
3.060937240E0,4.929506779E-2,-1.910949647E-1,1.579918899E-2
3.062941771E0,4.822980613E-2,-1.921602339E-1,1.579918899E-2
3.064946302E0,4.609927535E-2,-1.964212805E-1,1.366866194E-2
3.066950834E0,4.716453701E-2,-1.974865496E-1,1.260339841E-2
3.068955365E0,4.609927535E-2,-2.049433887E-1,1.260339841E-2
3.070959896E0,4.396875203E-2,-2.006823421E-1,9.407607839E-3
3.072964427E0,4.290348291E-2,-2.028128654E-1,5.146554206E-3
3.074968959E0,4.290348291E-2,-2.060086578E-1,8.342344314E-3
3.076973490E0,3.864242882E-2,-2.017475963E-1,7.277081255E-3
3.078978021E0,4.077295959E-2,-2.070739269E-1,5.146554206E-3
3.080982552E0,3.757716715E-2,-2.038781345E-1,5.146554206E-3
3.082987084E0,3.331611305E-2,-2.028128654E-1,-1.797629520E-4
3.084991615E0,3.012032248E-2,-2.017475963E-1,8.855005726E-4
3.086996146E0,3.012032248E-2,-1.974865496E-1,-2.310290001E-3
3.089000677E0,2.585927211E-2,-1.932255030E-1,-4.440817051E-3
3.091005209E0,2.372874506E-2,-1.889644414E-1,-1.245026477E-3
3.093009740E0,1.946769096E-2,-1.857686490E-1,-6.571344100E-3
3.095014271E0,1.946769096E-2,-1.793770641E-1,-7.636607625E-3
3.097018802E0,1.840242743E-2,-1.825728565E-1,-1.189766265E-2
3.099023334E0,1.201084629E-2,-1.719202250E-1,-9.767134674E-3
3.101027865E0,1.094558276E-2,-1.708549559E-1,-1.189766265E-2
3.103032396E0,9.880319238E-3,-1.655286402E-1,-1.296292618E-2
3.105036927E0,1.094558276E-2,-1.612675935E-1,-1.189766265E-2
3.107041459E0,7.749792188E-3,-1.538107395E-1,-1.189766265E-2
3.109045990E0,7.749792188E-3,-1.538107395E-1,-1.189766265E-2
3.111050521E0,8.815055713E-3,-1.474191695E-1,-1.296292618E-2
3.113055052E0,6.684528664E-3,-1.474191695E-1,-1.189766265E-2
3.115059584E0,9.880319238E-3,-1.420928538E-1,-1.189766265E-2
3.117064115E0,9.880319238E-3,-1.346359998E-1,-8.701871149E-3
3.119068646E0,8.815055713E-3,-1.346359998E-1,-9.767134674E-3
3.121073177E0,9.880319238E-3,-1.261138767E-1,-5.506080575E-3
3.123077709E0,8.815055713E-3,-1.250486225E-1,-4.440817051E-3
3.125082240E0,1.307610981E-2,-1.218528301E-1,8.855005726E-4
3.127086771E0,9.880319238E-3,-1.143959835E-1,-1.245026477E-3
3.129091302E0,1.307610981E-2,-1.122654602E-1,-1.245026477E-3
3.131095834E0,1.094558276E-2,-1.069391444E-1,-3.375553526E-3
3.133100365E0,1.414137334E-2,-1.026780903E-1,3.016027622E-3
3.135104896E0,1.520663686E-2,-1.037433520E-1,1.950764097E-3
3.137109427E0,1.733716391E-2,-1.005475596E-1,5.146554206E-3
3.139113959E0,1.840242743E-2,-9.522124380E-2,6.211817730E-3
3.141118490E0,2.159821801E-2,-8.669913560E-2,5.146554206E-3
3.143123021E0,2.159821801E-2,-8.882965893E-2,7.277081255E-3
3.145127552E0,2.372874506E-2,-8.563387394E-2,9.407607839E-3
3.147132084E0,2.692453377E-2,-8.137281984E-2,8.342344314E-3
3.149136615E0,3.118558787E-2,-8.030755073E-2,1.153813489E-2
3.151141146E0,3.118558787E-2,-7.604650408E-2,1.153813489E-2
3.153145677E0,3.438137472E-2,-6.752439588E-2,1.473392546E-2
3.155150209E0,3.544664383E-2,-6.432860345E-2,1.366866194E-2
3.157154740E0,3.651190549E-2,-5.687175319E-2,1.473392546E-2
3.159159271E0,3.757716715E-2,-5.793701485E-2,1.899497956E-2
3.161163802E0,3.651190549E-2,-4.941490665E-2,1.366866194E-2
3.163168334E0,4.077295959E-2,-4.621912166E-2,2.112550661E-2
3.165172865E0,4.077295959E-2,-3.982753679E-2,2.112550661E-2
3.167177396E0,4.503401369E-2,-3.343595937E-2,2.432129718E-2
3.169181927E0,4.396875203E-2,-3.024016879E-2,2.432129718E-2
3.171186459E0,4.929506779E-2,-2.810964175E-2,2.645182423E-2
3.173190990E0,4.396875203E-2,-2.917490527E-2,2.751708776E-2
3.175195521E0,4.396875203E-2,-2.704437822E-2,3.603919968E-2
3.177200052E0,4.503401369E-2,-2.810964175E-2,3.603919968E-2
3.179204584E0,4.077295959E-2,-1.852227002E-2,3.816972673E-2
3.181209115E0,4.396875203E-2,-1.532647852E-2,4.030025378E-2
3.183213646E0,3.864242882E-2,-1.852227002E-2,4.456130788E-2
3.185218177E0,4.290348291E-2,-1.532647852E-2,4.882236198E-2
3.187222709E0,3.970769793E-2,-1.852227002E-2,5.414868146E-2
3.189227240E0,3.970769793E-2,-1.852227002E-2,5.308341607E-2
3.191231771E0,3.864242882E-2,-1.958753355E-2,6.160552427E-2
3.193236302E0,3.864242882E-2,-1.319595147E-2,6.054025516E-2
3.195240834E0,3.970769793E-2,-1.958753355E-2,6.693183631E-2
3.197245365E0,4.183822125E-2,-2.384858765E-2,6.693183631E-2
3.199249896E0,3.757716715E-2,-2.384858765E-2,7.332341373E-2
3.201254427E0,4.290348291E-2,-2.917490527E-2,7.012762129E-2
3.203258959E0,4.183822125E-2,-3.130543232E-2,7.225815207E-2
3.205263490E0,4.290348291E-2,-3.450122103E-2,7.651920617E-2
3.207268021E0,4.183822125E-2,-3.769701347E-2,8.184552193E-2
3.209272552E0,4.077295959E-2,-4.089280218E-2,8.078026026E-2
3.211277084E0,4.077295959E-2,-4.408859089E-2,8.291079104E-2
3.213281615E0,4.290348291E-2,-4.834964499E-2,8.397605270E-2
3.215286146E0,3.970769793E-2,-5.367596075E-2,8.078026026E-2
3.217290677E0,4.077295959E-2,-5.580649152E-2,8.717183769E-2
3.219295209E0,3.864242882E-2,-6.432860345E-2,8.610657603E-2
3.221299740E0,4.077295959E-2,-7.285071164E-2,8.504131436E-2
3.223304271E0,4.290348291E-2,-8.137281984E-2,8.930236846E-2
3.225308802E0,3.651190549E-2,-8.350334316E-2,8.717183769E-2
3.227313334E0,4.077295959E-2,-9.096018970E-2,8.930236846E-2
3.229317865E0,4.077295959E-2,-1.005475596E-1,8.823710680E-2
3.231322396E0,3.970769793E-2,-1.069391444E-1,8.610657603E-2
3.233326927E0,3.864242882E-2,-1.175917760E-1,8.717183769E-2
3.235331459E0,3.970769793E-2,-1.261138767E-1,9.036763012E-2
3.237335990E0,3.970769793E-2,-1.314402074E-1,9.143289924E-2
3.239340521E0,3.864242882E-2,-1.367665231E-1,9.036763012E-2
3.241345052E0,4.077295959E-2,-1.420928538E-1,9.143289924E-2
3.243349584E0,3.970769793E-2,-1.495496929E-1,9.462868422E-2
3.245354115E0,3.651190549E-2,-1.548760086E-1,8.823710680E-2
3.247358646E0,3.757716715E-2,-1.655286402E-1,9.356342256E-2
3.249363177E0,3.544664383E-2,-1.751160175E-1,9.249816090E-2
3.251367709E0,3.438137472E-2,-1.847033799E-1,9.675921500E-2
3.253372240E0,3.438137472E-2,-1.910949647E-1,9.462868422E-2
3.255376771E0,3.118558787E-2,-2.070739269E-1,9.995500743E-2
3.257381302E0,2.905506082E-2,-2.102697194E-1,9.782447666E-2
3.259385834E0,3.012032248E-2,-2.198570818E-1,9.675921500E-2
3.261390365E0,2.479400672E-2,-2.251833975E-1,1.031507924E-1
3.263394948E0,2.266348153E-2,-2.379665673E-1,1.052813232E-1
3.265399532E0,2.159821801E-2,-2.464886755E-1,1.063465849E-1
3.267404115E0,2.159821801E-2,-2.528802156E-1,1.095423773E-1
3.269408698E0,1.840242743E-2,-2.624675930E-1,1.095423773E-1
3.271413282E0,2.053295448E-2,-2.677939236E-1,1.106076390E-1
3.273417865E0,1.627190039E-2,-2.773812711E-1,1.106076390E-1
3.275422448E0,1.307610981E-2,-2.816423476E-1,1.169992238E-1
3.277427032E0,1.627190039E-2,-2.890991867E-1,1.138034314E-1
3.279431615E0,1.201084629E-2,-2.912296951E-1,1.201950088E-1
3.281436198E0,9.880319238E-3,-2.986865640E-1,1.169992238E-1
3.283440782E0,3.488738090E-3,-3.050781488E-1,1.255213469E-1
3.285445365E0,-7.723160088E-4,-3.040128648E-1,1.223255470E-1
3.287449948E0,-3.968106583E-3,-3.104044497E-1,1.255213469E-1
3.289454532E0,-6.098633632E-3,-3.125349879E-1,1.297823936E-1
3.291459115E0,-8.229160681E-3,-3.167960346E-1,1.265866011E-1
3.293463698E0,-1.462074183E-2,-3.178612888E-1,1.287171394E-1
3.295468282E0,-1.462074183E-2,-3.199918270E-1,1.287171394E-1
3.297472865E0,-1.994705945E-2,-3.178612888E-1,1.308476627E-1
3.299477448E0,-2.527337708E-2,-3.242528737E-1,1.329781860E-1
3.301482032E0,-2.846916765E-2,-3.189265728E-1,1.329781860E-1
3.303486615E0,-2.846916765E-2,-3.210570812E-1,1.329781860E-1
3.305491198E0,-3.166496009E-2,-3.199918270E-1,1.404350251E-1
3.307495782E0,-3.699127585E-2,-3.146654963E-1,1.436308175E-1
3.309500365E0,-3.699127585E-2,-3.157307804E-1,1.404350251E-1
3.311504948E0,-3.273022175E-2,-3.136002421E-1,1.393697709E-1
3.313509532E0,-3.805654123E-2,-3.136002421E-1,1.425655633E-1
3.315514115E0,-4.338286072E-2,-3.082739413E-1,1.478918791E-1
3.317518698E0,-4.231759906E-2,-3.040128648E-1,1.446960866E-1
3.319523282E0,-4.338286072E-2,-2.965560257E-1,1.436308175E-1
3.321527813E0,-4.764391482E-2,-2.933602333E-1,1.457613558E-1
3.323532344E0,-4.764391482E-2,-2.890991867E-1,1.446960866E-1
3.325536875E0,-4.551338404E-2,-2.795118093E-1,1.468266100E-1
3.327541407E0,-4.870917648E-2,-2.773812711E-1,1.468266100E-1
3.329545938E0,-5.083970726E-2,-2.688591778E-1,1.436308175E-1
3.331550469E0,-5.190496892E-2,-2.592718005E-1,1.404350251E-1
3.333555000E0,-5.297023058E-2,-2.507497072E-1,1.446960866E-1
3.335559532E0,-5.510076135E-2,-2.443581522E-1,1.415002942E-1
3.337564063E0,-5.510076135E-2,-2.358360291E-1,1.393697709E-1
3.339568594E0,-5.723128468E-2,-2.273139358E-1,1.415002942E-1
3.341573125E0,-5.403549224E-2,-2.209223509E-1,1.361739784E-1
3.343577657E0,-5.936181545E-2,-2.081391811E-1,1.361739784E-1
3.345582188E0,-5.829654634E-2,-2.038781345E-1,1.308476627E-1
3.347586719E0,-6.575339288E-2,-1.953560263E-1,1.340434551E-1
3.349591250E0,-6.575339288E-2,-1.878991723E-1,1.319129318E-1
3.351595782E0,-6.149233878E-2,-1.783118099E-1,1.276518703E-1
3.353600313E0,-6.575339288E-2,-1.708549559E-1,1.223255470E-1
3.355604844E0,-6.362286955E-2,-1.602023244E-1,1.223255470E-1
3.357609375E0,-7.107971609E-2,-1.516802162E-1,1.265866011E-1
3.359613907E0,-7.214497775E-2,-1.431581080E-1,1.201950088E-1
3.361614740E0,-7.214497775E-2,-1.367665231E-1,1.223255470E-1
3.363615573E0,-7.107971609E-2,-1.261138767E-1,1.191297472E-1
3.365616823E0,-7.001444697E-2,-1.197223067E-1,1.191297472E-1
3.367618594E0,-7.534076273E-2,-1.143959835E-1,1.223255470E-1
3.369620990E0,-7.640603185E-2,-1.058738753E-1,1.233908013E-1
3.371624063E0,-7.640603185E-2,-9.948229790E-2,1.191297472E-1
3.373627865E0,-7.747129351E-2,-9.735176712E-2,1.212602705E-1
3.375632396E0,-7.853655517E-2,-8.563387394E-2,1.233908013E-1
3.377637604E0,-7.747129351E-2,-8.137281984E-2,1.148686931E-1
3.379643438E0,-7.640603185E-2,-7.285071164E-2,1.201950088E-1
3.381649844E0,-7.960182428E-2,-7.285071164E-2,1.233908013E-1
3.383656719E0,-7.747129351E-2,-6.858965755E-2,1.191297472E-1
3.385663959E0,-8.066708595E-2,-6.113280728E-2,1.223255470E-1
3.387671407E0,-8.386287093E-2,-5.900228396E-2,1.233908013E-1
3.389678959E0,-8.386287093E-2,-5.687175319E-2,1.191297472E-1
3.391686511E0,-8.386287093E-2,-5.048017576E-2,1.201950088E-1
3.393691302E0,-8.386287093E-2,-4.515385255E-2,1.180644855E-1
3.395695834E0,-8.279760927E-2,-3.769701347E-2,1.148686931E-1
3.397700365E0,-8.173234761E-2,-3.663174808E-2,1.212602705E-1
3.399704896E0,-8.705866337E-2,-3.450122103E-2,1.201950088E-1
3.401709427E0,-8.492814004E-2,-3.450122103E-2,1.148686931E-1
3.403713959E0,-8.705866337E-2,-3.450122103E-2,1.212602705E-1
3.405718490E0,-8.705866337E-2,-3.130543232E-2,1.201950088E-1
3.407723021E0,-8.492814004E-2,-2.597911470E-2,1.127381623E-1
3.409727552E0,-8.705866337E-2,-2.065279707E-2,1.127381623E-1
3.411732084E0,-8.918919414E-2,-2.597911470E-2,1.116729006E-1
3.413736615E0,-8.812393248E-2,-2.384858765E-2,1.106076390E-1
3.415741146E0,-8.705866337E-2,-2.065279707E-2,1.052813232E-1
3.417745677E0,-8.918919414E-2,-1.852227002E-2,1.052813232E-1
3.419750209E0,-8.812393248E-2,-1.745700650E-2,1.031507924E-1
3.421754740E0,-8.812393248E-2,-2.065279707E-2,1.042160541E-1
3.423759271E0,-8.812393248E-2,-1.639174297E-2,9.569394588E-2
3.425763802E0,-8.173234761E-2,-1.745700650E-2,9.356342256E-2
3.427768334E0,-8.492814004E-2,-1.745700650E-2,9.462868422E-2
3.429772865E0,-8.492814004E-2,-1.958753355E-2,8.717183769E-2
3.431777396E0,-8.066708595E-2,-1.852227002E-2,8.504131436E-2
3.433781927E0,-8.386287093E-2,-1.639174297E-2,7.971499860E-2
3.435786459E0,-7.960182428E-2,-2.278332412E-2,8.291079104E-2
3.437790990E0,-7.747129351E-2,-1.852227002E-2,7.438868284E-2
3.439795521E0,-7.640603185E-2,-2.597911470E-2,7.545394450E-2
3.441800052E0,-7.321023941E-2,-2.065279707E-2,7.332341373E-2
3.443804584E0,-7.107971609E-2,-2.917490527E-2,6.586657465E-2
3.445809115E0,-6.788392365E-2,-3.237069398E-2,6.586657465E-2
3.447813646E0,-7.001444697E-2,-3.663174808E-2,5.734447017E-2
3.449818177E0,-6.788392365E-2,-3.982753679E-2,5.521394312E-2
3.451822709E0,-6.575339288E-2,-3.982753679E-2,5.521394312E-2
3.453827240E0,-6.468813121E-2,-4.621912166E-2,5.414868146E-2
3.455831771E0,-6.575339288E-2,-4.941490665E-2,4.456130788E-2
3.457836302E0,-6.149233878E-2,-5.367596075E-2,3.816972673E-2
3.459840834E0,-6.149233878E-2,-5.900228396E-2,3.603919968E-2
3.461845365E0,-6.575339288E-2,-6.432860345E-2,3.816972673E-2
3.463849896E0,-6.255760044E-2,-6.858965755E-2,2.964761667E-2
3.465854427E0,-6.255760044E-2,-6.752439588E-2,2.006024309E-2
3.467858959E0,-6.362286955E-2,-7.391597331E-2,2.006024309E-2
3.469863490E0,-6.362286955E-2,-8.137281984E-2,1.579918899E-2
3.471868021E0,-6.042707711E-2,-8.350334316E-2,1.047287136E-2
3.473872552E0,-6.149233878E-2,-9.415598214E-2,5.146554206E-3
3.475877084E0,-5.936181545E-2,-1.016128287E-1,3.016027622E-3
3.477881615E0,-6.149233878E-2,-1.016128287E-1,-4.440817051E-3
3.479886146E0,-6.149233878E-2,-1.069391444E-1,-7.636607625E-3
3.481890677E0,-5.829654634E-2,-1.154612526E-1,-1.296292618E-2
3.483895209E0,-5.936181545E-2,-1.186570451E-1,-2.148503438E-2
3.485899740E0,-5.936181545E-2,-1.239833608E-1,-2.574608847E-2
3.487904271E0,-5.829654634E-2,-1.303749382E-1,-3.320293501E-2
3.489908802E0,-5.510076135E-2,-1.388970613E-1,-3.320293501E-2
3.491913334E0,-5.297023058E-2,-1.410275847E-1,-3.959450871E-2
3.493917865E0,-5.297023058E-2,-1.538107395E-1,-4.705135524E-2
3.495922396E0,-4.870917648E-2,-1.570065320E-1,-4.918188229E-2
3.497926927E0,-4.764391482E-2,-1.559412777E-1,-5.557346344E-2
3.499931459E0,-4.870917648E-2,-1.644633859E-1,-5.770399049E-2
3.501935990E0,-5.083970726E-2,-1.697897017E-1,-6.409557164E-2
3.503940521E0,-4.977443814E-2,-1.719202250E-1,-6.516083330E-2
3.505945052E0,-4.444812238E-2,-1.740507483E-1,-6.942189485E-2
3.507949584E0,-4.870917648E-2,-1.783118099E-1,-6.942189485E-2
3.509954115E0,-4.444812238E-2,-1.793770641E-1,-7.368294895E-2
3.511958646E0,-4.444812238E-2,-1.804423332E-1,-7.261768728E-2
3.513963177E0,-4.444812238E-2,-1.804423332E-1,-8.327032626E-2
3.515967709E0,-4.338286072E-2,-1.804423332E-1,-8.220505714E-2
3.517972240E0,-4.125232995E-2,-1.825728565E-1,-8.753137290E-2
3.519976771E0,-4.551338404E-2,-1.804423332E-1,-8.540084958E-2
3.521981302E0,-4.018706828E-2,-1.804423332E-1,-8.966190368E-2
3.523985834E0,-3.912180662E-2,-1.804423332E-1,-9.072716534E-2
3.525990365E0,-3.805654123E-2,-1.772465408E-1,-9.498821944E-2
3.527994896E0,-3.592601418E-2,-1.740507483E-1,-9.498821944E-2
3.529999427E0,-3.166496009E-2,-1.740507483E-1,-9.818401188E-2
3.532003959E0,-3.059969470E-2,-1.676591635E-1,-1.024450660E-1
3.534008490E0,-2.846916765E-2,-1.708549559E-1,-1.024450660E-1
3.536013021E0,-2.953443117E-2,-1.644633859E-1,-1.077713817E-1
3.538017552E0,-2.207758650E-2,-1.623328477E-1,-1.099019125E-1
3.540022084E0,-2.101232298E-2,-1.559412777E-1,-1.141629666E-1
3.542026615E0,-2.101232298E-2,-1.527454853E-1,-1.120324358E-1
3.544031146E0,-1.781653240E-2,-1.442233771E-1,-1.162934899E-1
3.546035677E0,-1.888179593E-2,-1.452886313E-1,-1.205545440E-1
3.548040209E0,-1.249021478E-2,-1.357012689E-1,-1.237503365E-1
3.550044740E0,-8.229160681E-3,-1.325054765E-1,-1.280113757E-1
3.552049271E0,-5.033370107E-3,-1.293096840E-1,-1.280113757E-1
3.554053802E0,-7.163897157E-3,-1.282444149E-1,-1.301418990E-1
3.556058334E0,-2.902843058E-3,-1.218528301E-1,-1.312071681E-1
3.558062865E0,-7.723160088E-4,-1.143959835E-1,-1.375987530E-1
3.560067396E0,5.619265139E-3,-1.165265143E-1,-1.354682148E-1
3.562071927E0,5.619265139E-3,-1.133307219E-1,-1.344029605E-1
3.564076459E0,4.554001614E-3,-1.048086137E-1,-1.375987530E-1
3.566080990E0,8.815055713E-3,-1.005475596E-1,-1.397292763E-1
3.568085521E0,1.094558276E-2,-9.735176712E-2,-1.429250687E-1
3.570090052E0,1.307610981E-2,-1.016128287E-1,-1.439903229E-1
3.572094584E0,1.414137334E-2,-9.628650546E-2,-1.503819078E-1
3.574099115E0,7.749792188E-3,-9.415598214E-2,-1.482513845E-1
3.576103646E0,9.880319238E-3,-9.096018970E-2,-1.461208612E-1
3.578108177E0,1.201084629E-2,-8.563387394E-2,-1.471861154E-1
3.580112709E0,8.815055713E-3,-8.350334316E-2,-1.503819078E-1
3.582117240E0,8.815055713E-3,-8.243808150E-2,-1.514471769E-1
3.584121771E0,8.815055713E-3,-8.137281984E-2,-1.514471769E-1
3.586126302E0,5.619265139E-3,-8.243808150E-2,-1.503819078E-1
3.588130834E0,5.619265139E-3,-8.243808150E-2,-1.535777003E-1
3.590135365E0,4.554001614E-3,-8.137281984E-2,-1.514471769E-1
3.592139896E0,2.423474565E-3,-8.456861228E-2,-1.546429694E-1
3.594144427E0,7.749792188E-3,-7.711176574E-2,-1.567734927E-1
3.596148959E0,3.488738090E-3,-7.817702740E-2,-1.535777003E-1
3.598153490E0,4.554001614E-3,-7.817702740E-2,-1.567734927E-1
3.600158021E0,6.684528664E-3,-7.711176574E-2,-1.546429694E-1
3.602162552E0,5.619265139E-3,-7.285071164E-2,-1.557082236E-1
3.604167084E0,5.619265139E-3,-7.285071164E-2,-1.610345393E-1
3.606171615E0,4.554001614E-3,-7.285071164E-2,-1.567734927E-1
3.608176146E0,7.749792188E-3,-7.178544998E-2,-1.557082236E-1
3.610180677E0,4.554001614E-3,-7.285071164E-2,-1.546429694E-1
3.612185209E0,8.815055713E-3,-6.965491921E-2,-1.557082236E-1
3.614189740E0,1.414137334E-2,-7.285071164E-2,-1.578387469E-1
3.616194271E0,9.880319238E-3,-6.858965755E-2,-1.535777003E-1
3.618198802E0,1.201084629E-2,-7.072018087E-2,-1.567734927E-1
3.620203334E0,1.520663686E-2,-7.178544998E-2,-1.578387469E-1
3.622207865E0,1.840242743E-2,-7.178544998E-2,-1.557082236E-1
3.624212396E0,1.733716391E-2,-7.072018087E-2,-1.567734927E-1
3.626216927E0,1.733716391E-2,-7.498123497E-2,-1.567734927E-1
3.628221459E0,1.946769096E-2,-7.285071164E-2,-1.567734927E-1
3.630225990E0,2.053295448E-2,-7.498123497E-2,-1.567734927E-1
3.632230521E0,2.372874506E-2,-7.391597331E-2,-1.599692851E-1
3.634235052E0,2.479400672E-2,-7.391597331E-2,-1.567734927E-1
3.636239584E0,2.372874506E-2,-7.817702740E-2,-1.578387469E-1
3.638244115E0,2.905506082E-2,-7.711176574E-2,-1.578387469E-1
3.640248646E0,2.692453377E-2,-7.711176574E-2,-1.578387469E-1
3.642253177E0,2.479400672E-2,-8.030755073E-2,-1.610345393E-1
3.644257709E0,2.159821801E-2,-8.243808150E-2,-1.610345393E-1
3.646262240E0,2.585927211E-2,-8.350334316E-2,-1.610345393E-1
3.648266771E0,2.692453377E-2,-8.350334316E-2,-1.631650776E-1
3.650271302E0,2.266348153E-2,-8.989492804E-2,-1.578387469E-1
3.652275834E0,2.479400672E-2,-8.669913560E-2,-1.631650776E-1
3.654280365E0,2.585927211E-2,-8.456861228E-2,-1.557082236E-1
3.656284896E0,2.266348153E-2,-9.096018970E-2,-1.557082236E-1
3.658289427E0,2.159821801E-2,-8.882965893E-2,-1.514471769E-1
3.660293959E0,1.627190039E-2,-8.989492804E-2,-1.503819078E-1
3.662298490E0,2.159821801E-2,-9.522124380E-2,-1.493166536E-1
3.664303021E0,1.946769096E-2,-9.415598214E-2,-1.439903229E-1
3.666307552E0,2.266348153E-2,-9.628650546E-2,-1.461208612E-1
3.668312084E0,1.733716391E-2,-9.309072047E-2,-1.450555921E-1
3.670316615E0,2.159821801E-2,-1.016128287E-1,-1.429250687E-1
3.672321146E0,2.479400672E-2,-9.841703624E-2,-1.397292763E-1
3.674325677E0,1.840242743E-2,-1.026780903E-1,-1.354682148E-1
3.676330209E0,1.627190039E-2,-1.026780903E-1,-1.344029605E-1
3.678334740E0,1.520663686E-2,-1.005475596E-1,-1.333376914E-1
3.680339271E0,1.733716391E-2,-1.026780903E-1,-1.333376914E-1
3.682343802E0,1.201084629E-2,-1.026780903E-1,-1.365334839E-1
3.684348386E0,1.094558276E-2,-1.005475596E-1,-1.333376914E-1
3.686352969E0,5.619265139E-3,-1.005475596E-1,-1.312071681E-1
3.688357552E0,2.423474565E-3,-9.948229790E-2,-1.290766448E-1
3.690362136E0,2.423474565E-3,-9.415598214E-2,-1.269461215E-1
3.692366719E0,1.358211040E-3,-9.841703624E-2,-1.237503365E-1
3.694371302E0,-1.837579533E-3,-9.309072047E-2,-1.237503365E-1
3.696375886E0,-3.968106583E-3,-9.628650546E-2,-1.216198057E-1
3.698380469E0,-2.902843058E-3,-9.628650546E-2,-1.162934899E-1
3.700385052E0,-3.968106583E-3,-8.989492804E-2,-1.162934899E-1
3.702389636E0,-3.968106583E-3,-9.522124380E-2,-1.162934899E-1
3.704394219E0,-5.033370107E-3,-9.522124380E-2,-1.173587590E-1
3.706398802E0,-5.033370107E-3,-9.415598214E-2,-1.099019125E-1
3.708403386E0,-3.968106583E-3,-9.309072047E-2,-1.109671742E-1
3.710407969E0,-6.098633632E-3,-9.735176712E-2,-1.077713817E-1
3.712412552E0,-1.837579533E-3,-9.735176712E-2,-1.141629666E-1
3.714417136E0,-2.902843058E-3,-9.735176712E-2,-1.077713817E-1
3.716421719E0,-5.033370107E-3,-9.735176712E-2,-1.077713817E-1
3.718426302E0,-2.902843058E-3,-9.948229790E-2,-1.077713817E-1
3.720430886E0,-8.229160681E-3,-9.948229790E-2,-1.067061201E-1
3.722435469E0,-9.294424206E-3,-9.522124380E-2,-1.077713817E-1
3.724440052E0,-7.163897157E-3,-9.522124380E-2,-1.056408584E-1
3.726444636E0,-5.033370107E-3,-9.309072047E-2,-1.088366508E-1
3.728449219E0,-6.098633632E-3,-9.096018970E-2,-1.024450660E-1
3.730453802E0,-9.294424206E-3,-8.989492804E-2,-1.035103276E-1
3.732458386E0,-9.294424206E-3,-9.096018970E-2,-1.003145427E-1
3.734462969E0,-1.568600535E-2,-9.096018970E-2,-9.924927354E-2
3.736467552E0,-1.249021478E-2,-8.137281984E-2,-1.003145427E-1
3.738472136E0,-1.675126888E-2,-8.563387394E-2,-9.818401188E-2
3.740476719E0,-1.994705945E-2,-7.817702740E-2,-9.818401188E-2
3.742481302E0,-1.675126888E-2,-8.243808150E-2,-9.711875021E-2
3.744485834E0,-1.675126888E-2,-7.604650408E-2,-9.498821944E-2
3.746490365E0,-1.781653240E-2,-7.711176574E-2,-9.179243445E-2
3.748494896E0,-2.207758650E-2,-7.391597331E-2,-9.179243445E-2
3.750499427E0,-2.207758650E-2,-7.285071164E-2,-9.179243445E-2
3.752503959E0,-2.527337708E-2,-7.178544998E-2,-9.179243445E-2
3.754508490E0,-2.420811355E-2,-6.645912677E-2,-8.859664202E-2
3.756513021E0,-2.740390413E-2,-6.858965755E-2,-8.753137290E-2
3.758517552E0,-2.740390413E-2,-6.432860345E-2,-8.433558792E-2
3.760522084E0,-2.953443117E-2,-6.326334178E-2,-8.646611124E-2
3.762526615E0,-3.379548341E-2,-6.326334178E-2,-8.007453382E-2
3.764531146E0,-3.059969470E-2,-5.687175319E-2,-8.220505714E-2
3.766535677E0,-3.166496009E-2,-5.580649152E-2,-7.581347972E-2
3.768540209E0,-3.273022175E-2,-5.261069909E-2,-7.794400305E-2
3.770544740E0,-3.486074880E-2,-5.154543743E-2,-7.261768728E-2
3.772549271E0,-3.592601418E-2,-4.834964499E-2,-6.942189485E-2
3.774553802E0,-3.379548341E-2,-4.728438333E-2,-7.261768728E-2
3.776558334E0,-3.592601418E-2,-4.515385255E-2,-6.835663319E-2
3.778562865E0,-4.125232995E-2,-4.515385255E-2,-6.089977920E-2
3.780567396E0,-3.805654123E-2,-4.621912166E-2,-6.622610986E-2
3.782571927E0,-3.379548341E-2,-3.982753679E-2,-6.622610986E-2
3.784576459E0,-3.805654123E-2,-3.982753679E-2,-5.876925588E-2
3.786580990E0,-3.059969470E-2,-3.343595937E-2,-6.303030998E-2
3.788585521E0,-3.592601418E-2,-3.343595937E-2,-5.770399049E-2
3.790590052E0,-3.059969470E-2,-3.556648269E-2,-5.983451754E-2
3.792594584E0,-3.059969470E-2,-3.450122103E-2,-5.557346344E-2
3.794599115E0,-2.740390413E-2,-2.917490527E-2,-5.557346344E-2
3.796603646E0,-2.846916765E-2,-2.704437822E-2,-5.663872510E-2
3.798608177E0,-2.207758650E-2,-2.491385117E-2,-6.196504459E-2
3.800612709E0,-2.420811355E-2,-2.704437822E-2,-5.770399049E-2
3.802617240E0,-2.314285003E-2,-2.065279707E-2,-6.089977920E-2
3.804621771E0,-2.527337708E-2,-1.745700650E-2,-5.663872510E-2
3.806626302E0,-1.994705945E-2,-1.852227002E-2,-6.089977920E-2
3.808630834E0,-1.888179593E-2,-1.532647852E-2,-5.876925588E-2
3.810635365E0,-1.994705945E-2,-1.532647852E-2,-5.663872510E-2
3.812639896E0,-2.314285003E-2,-1.106542442E-2,-5.344293639E-2
3.814644427E0,-2.101232298E-2,-6.804370321E-3,-5.876925588E-2
3.816648959E0,-2.207758650E-2,-4.673843272E-3,-5.557346344E-2
3.818653490E0,-2.207758650E-2,-3.608579980E-3,-5.131240934E-2
3.820658021E0,-2.314285003E-2,-2.543316456E-3,-4.918188229E-2
3.822662552E0,-2.314285003E-2,6.524741184E-4,-5.237767100E-2
3.824667084E0,-2.527337708E-2,6.524741184E-4,-4.705135524E-2
3.826671615E0,-2.420811355E-2,3.848264692E-3,-4.279030114E-2
3.828676146E0,-2.420811355E-2,4.913528450E-3,-4.385556281E-2
3.830680677E0,-2.633864060E-2,8.109319024E-3,-3.746398538E-2
3.832685209E0,-2.846916765E-2,8.109319024E-3,-3.320293501E-2
3.834689740E0,-2.740390413E-2,9.174582548E-3,-3.213766962E-2
3.836694271E0,-3.059969470E-2,1.023984607E-2,-2.361556143E-2
3.838698802E0,-3.059969470E-2,9.174582548E-3,-2.574608847E-2
3.840703334E0,-3.486074880E-2,1.237037312E-2,-2.148503438E-2
3.842707865E0,-3.592601418E-2,1.130510960E-2,-1.615871675E-2
3.844712396E0,-3.805654123E-2,1.130510960E-2,-6.571344100E-3
3.846716927E0,-3.912180662E-2,1.343563665E-2,-7.636607625E-3
3.848721459E0,-4.018706828E-2,1.237037312E-2,-3.375553526E-3
3.850725990E0,-4.444812238E-2,1.023984607E-2,1.950764097E-3
3.852730521E0,-4.551338404E-2,1.556616370E-2,1.950764097E-3
3.854735052E0,-5.083970726E-2,1.343563665E-2,6.211817730E-3
3.856739584E0,-5.083970726E-2,1.769668981E-2,1.260339841E-2
3.858744115E0,-4.870917648E-2,1.556616370E-2,1.579918899E-2
3.860748646E0,-5.297023058E-2,1.023984607E-2,2.006024309E-2
3.862753177E0,-5.190496892E-2,1.450090017E-2,2.006024309E-2
3.864757709E0,-5.723128468E-2,1.130510960E-2,2.325603366E-2
3.866762240E0,-5.190496892E-2,1.237037312E-2,3.071287833E-2
3.868766771E0,-5.297023058E-2,1.237037312E-2,3.284341097E-2
3.870771302E0,-5.403549224E-2,1.023984607E-2,2.964761667E-2
3.872775834E0,-5.190496892E-2,1.450090017E-2,3.603919968E-2
3.874780365E0,-5.510076135E-2,1.130510960E-2,3.710446507E-2
3.876784896E0,-5.190496892E-2,1.237037312E-2,3.816972673E-2
3.878789427E0,-4.977443814E-2,1.237037312E-2,3.923498839E-2
3.880793959E0,-4.977443814E-2,1.237037312E-2,3.710446507E-2
3.882798490E0,-4.444812238E-2,1.343563665E-2,4.136551917E-2
3.884803021E0,-4.551338404E-2,1.450090017E-2,4.349604249E-2
3.886807552E0,-4.231759906E-2,1.023984607E-2,4.030025378E-2
3.888812084E0,-4.444812238E-2,1.237037312E-2,3.923498839E-2
3.890816615E0,-4.338286072E-2,1.343563665E-2,4.136551917E-2
3.892821146E0,-3.805654123E-2,1.343563665E-2,3.816972673E-2
3.894825677E0,-3.805654123E-2,1.237037312E-2,4.030025378E-2
3.896830209E0,-3.486074880E-2,1.450090017E-2,3.816972673E-2
3.898834740E0,-3.059969470E-2,1.450090017E-2,3.497393429E-2
3.900839271E0,-2.633864060E-2,1.237037312E-2,3.497393429E-2
3.902843802E0,-2.740390413E-2,8.109319024E-3,3.177814558E-2
3.904848334E0,-2.527337708E-2,8.109319024E-3,3.071287833E-2
3.906852865E0,-2.207758650E-2,1.450090017E-2,2.645182423E-2
3.908857396E0,-2.314285003E-2,1.130510960E-2,2.645182423E-2
3.910861927E0,-2.207758650E-2,1.023984607E-2,3.071287833E-2
3.912866459E0,-2.101232298E-2,1.450090017E-2,2.006024309E-2
3.914870990E0,-2.101232298E-2,1.450090017E-2,2.538656071E-2
3.916875521E0,-2.420811355E-2,1.982721686E-2,2.112550661E-2
3.918880052E0,-2.207758650E-2,1.876195334E-2,2.112550661E-2
3.920884584E0,-2.527337708E-2,2.302300930E-2,2.112550661E-2
3.922889115E0,-2.207758650E-2,1.769668981E-2,2.112550661E-2
3.924893646E0,-2.207758650E-2,2.195774391E-2,2.538656071E-2
3.926898177E0,-2.101232298E-2,2.408827096E-2,2.432129718E-2
3.928902709E0,-2.527337708E-2,2.621879801E-2,2.538656071E-2
3.930907240E0,-2.420811355E-2,2.195774391E-2,2.325603366E-2
3.932911771E0,-2.420811355E-2,1.982721686E-2,2.964761667E-2
3.934916302E0,-2.527337708E-2,1.663142629E-2,3.071287833E-2
3.936920834E0,-1.888179593E-2,2.089248039E-2,2.858235128E-2
3.938925365E0,-2.207758650E-2,1.982721686E-2,3.071287833E-2
3.940929896E0,-2.207758650E-2,1.876195334E-2,3.177814558E-2
3.942934427E0,-1.675126888E-2,1.769668981E-2,3.497393429E-2
3.944938959E0,-1.781653240E-2,1.663142629E-2,3.177814558E-2
3.946943490E0,-1.781653240E-2,1.769668981E-2,3.071287833E-2
3.948948021E0,-1.355547830E-2,1.556616370E-2,3.497393429E-2
3.950952552E0,-1.568600535E-2,1.450090017E-2,3.284341097E-2
3.952957084E0,-1.568600535E-2,1.663142629E-2,3.816972673E-2
3.954961615E0,-1.355547830E-2,1.450090017E-2,3.710446507E-2
3.956966146E0,-1.249021478E-2,1.769668981E-2,3.603919968E-2
3.958970677E0,-1.249021478E-2,1.450090017E-2,3.816972673E-2
3.960975209E0,-7.163897157E-3,1.237037312E-2,3.497393429E-2
3.962979740E0,-9.294424206E-3,1.663142629E-2,3.816972673E-2
3.964984271E0,-7.163897157E-3,1.769668981E-2,3.816972673E-2
3.966988802E0,-7.723160088E-4,1.876195334E-2,3.603919968E-2
3.968993334E0,-7.723160088E-4,1.876195334E-2,3.390867263E-2
3.970997865E0,1.358211040E-3,2.302300930E-2,3.497393429E-2
3.973002396E0,2.423474565E-3,1.876195334E-2,3.390867263E-2
3.975006927E0,5.619265139E-3,2.408827096E-2,3.816972673E-2
3.977011459E0,3.488738090E-3,2.408827096E-2,3.603919968E-2
3.979015990E0,7.749792188E-3,2.621879801E-2,2.858235128E-2
3.981020521E0,8.815055713E-3,2.728406340E-2,3.071287833E-2
3.983025052E0,1.201084629E-2,2.941458672E-2,2.964761667E-2
3.985029584E0,8.815055713E-3,2.941458672E-2,2.964761667E-2
3.987034115E0,1.094558276E-2,2.728406340E-2,2.858235128E-2
3.989038646E0,9.880319238E-3,2.834932506E-2,3.071287833E-2
3.991043177E0,1.414137334E-2,3.367564455E-2,2.858235128E-2
3.993047709E0,1.094558276E-2,3.367564455E-2,2.858235128E-2
3.995052240E0,1.307610981E-2,2.728406340E-2,2.858235128E-2
3.997056771E0,1.307610981E-2,3.261038288E-2,2.751708776E-2
3.999061302E0,1.094558276E-2,3.047985025E-2,3.177814558E-2
4.001065834E0,1.307610981E-2,2.941458672E-2,3.390867263E-2
