"Time (s)","Acceleration x (m/s^2)","Acceleration y (m/s^2)","Acceleration z (m/s^2)"
0.000000000E0,4.190167189E-1,6.928203583E0,6.777232647E0
1.965208000E-3,3.998529315E-1,6.909039497E0,6.796396255E0
3.930625000E-3,3.902710080E-1,6.956949234E0,6.782023430E0
5.897812000E-3,4.285986423E-1,6.985694885E0,6.801187515E0
7.868229000E-3,4.717172384E-1,7.000067711E0,6.796396255E0
9.843125000E-3,5.196268559E-1,7.024022579E0,6.825141907E0
1.182359400E-2,5.867002010E-1,7.081513882E0,6.815560341E0
1.381036500E-2,6.202369332E-1,7.115050793E0,6.801187515E0
1.580395800E-2,6.441916823E-1,7.124632835E0,6.801187515E0
1.780458300E-2,6.873103380E-1,7.167751312E0,6.767650604E0
1.980864600E-2,7.064741254E-1,7.167751312E0,6.743695736E0
2.181270800E-2,7.208470106E-1,7.206079006E0,6.748486996E0
2.382369800E-2,7.064741254E-1,7.230033875E0,6.714950085E0
2.584109400E-2,6.921012998E-1,7.215661049E0,6.710159302E0
2.786447900E-2,6.968922615E-1,7.210869789E0,6.695786476E0
2.988890600E-2,6.825193763E-1,7.215661049E0,6.700577259E0
3.191333300E-2,6.825193763E-1,7.210869789E0,6.710159302E0
3.393776000E-2,6.346098185E-1,7.196496964E0,6.690995216E0
3.596474000E-2,6.202369332E-1,7.201288223E0,6.690995216E0
3.799333300E-2,6.106550097E-1,7.182124138E0,6.695786476E0
4.002255200E-2,5.867002010E-1,7.186914921E0,6.690995216E0
4.204369800E-2,5.819092393E-1,7.148587704E0,6.690995216E0
4.404921900E-2,5.675364137E-1,7.153378487E0,6.700577259E0
4.605474000E-2,5.531635284E-1,7.139005661E0,6.705368042E0
4.806031200E-2,5.531635284E-1,7.143796444E0,6.700577259E0
5.006593700E-2,5.387906432E-1,7.115050793E0,6.724532127E0
5.207161500E-2,5.531635284E-1,7.091095924E0,6.719740868E0
5.407729200E-2,5.483725667E-1,7.115050793E0,6.705368042E0
5.608296900E-2,5.627454519E-1,7.119841576E0,6.681413651E0
5.808760400E-2,5.914911628E-1,7.148587704E0,6.681413651E0
6.009218700E-2,6.394007206E-1,7.167751312E0,6.662249565E0
6.209677100E-2,6.681464911E-1,7.206079006E0,6.652667522E0
6.410135400E-2,6.968922615E-1,7.230033875E0,6.633503914E0
6.610593700E-2,7.016831636E-1,7.239615440E0,6.633503914E0
6.811052100E-2,7.448018193E-1,7.253988743E0,6.628712654E0
7.011510400E-2,7.543837428E-1,7.249197483E0,6.609549046E0
7.211968700E-2,7.543837428E-1,7.249197483E0,6.614339828E0
7.412427100E-2,7.735475302E-1,7.239615440E0,6.604758263E0
7.612885400E-2,7.879204154E-1,7.206079006E0,6.599967003E0
7.813343700E-2,7.831294537E-1,7.201288223E0,6.623921871E0
8.013802100E-2,7.783384919E-1,7.182124138E0,6.614339828E0
8.214260400E-2,7.639656067E-1,7.172542095E0,6.604758263E0
8.414718700E-2,7.543837428E-1,7.134214401E0,6.604758263E0
8.615177100E-2,7.448018193E-1,7.124632835E0,6.623921871E0
8.815635400E-2,7.352198958E-1,7.095887184E0,6.619131088E0
9.016093700E-2,7.208470106E-1,7.076723099E0,6.614339828E0
9.216552100E-2,7.160560489E-1,7.052768230E0,6.633503914E0
9.417010400E-2,6.777284145E-1,7.047977448E0,6.652667522E0
9.617468700E-2,6.729374528E-1,7.028813362E0,6.657458782E0
9.817927100E-2,6.394007206E-1,7.024022579E0,6.643085957E0
1.001838540E-1,6.346098185E-1,7.024022579E0,6.667040348E0
1.021884370E-1,6.154459715E-1,7.024022579E0,6.671831608E0
1.041930210E-1,6.250278950E-1,7.038395405E0,6.662249565E0
1.061976040E-1,5.962821245E-1,7.004858971E0,6.676622391E0
1.082021870E-1,5.819092393E-1,7.019231796E0,6.681413651E0
1.102067710E-1,5.771182775E-1,7.009649754E0,6.695786476E0
1.122113540E-1,5.531635284E-1,7.047977448E0,6.686204433E0
1.142159370E-1,5.771182775E-1,7.024022579E0,6.686204433E0
1.162205210E-1,5.771182775E-1,7.043186665E0,6.690995216E0
1.182251040E-1,5.579544902E-1,7.038395405E0,6.690995216E0
1.202296870E-1,5.771182775E-1,7.057559490E0,6.710159302E0
1.222342710E-1,5.771182775E-1,7.043186665E0,6.710159302E0
1.242388540E-1,6.058640480E-1,7.043186665E0,6.719740868E0
1.262434370E-1,6.010730863E-1,7.062350273E0,6.729322910E0
1.282480210E-1,6.394007206E-1,7.047977448E0,6.738904953E0
1.302526040E-1,6.298188567E-1,7.052768230E0,6.743695736E0
1.322571870E-1,6.346098185E-1,7.033604622E0,6.743695736E0
1.342617710E-1,6.489826441E-1,7.033604622E0,6.729322910E0
1.362663540E-1,6.441916823E-1,7.043186665E0,6.738904953E0
1.382709370E-1,6.729374528E-1,7.057559490E0,6.762859821E0
1.402755210E-1,6.729374528E-1,7.067141056E0,6.738904953E0
1.422801040E-1,7.112650871E-1,7.071932316E0,6.753277779E0
1.442846870E-1,7.064741254E-1,7.081513882E0,6.758068562E0
1.462892710E-1,7.400108576E-1,7.091095924E0,6.762859821E0
1.482938540E-1,7.352198958E-1,7.091095924E0,6.738904953E0
1.502984370E-1,7.448018193E-1,7.081513882E0,6.743695736E0
1.523030210E-1,7.400108576E-1,7.086305141E0,6.772441387E0
1.543076040E-1,7.591747046E-1,7.071932316E0,6.767650604E0
1.563121870E-1,7.543837428E-1,7.071932316E0,6.767650604E0
1.583167710E-1,7.352198958E-1,7.057559490E0,6.772441387E0
1.603213540E-1,7.304289341E-1,7.043186665E0,6.762859821E0
1.623259370E-1,7.064741254E-1,7.047977448E0,6.762859821E0
1.643305210E-1,7.016831636E-1,7.038395405E0,6.738904953E0
1.663351040E-1,7.256379724E-1,7.047977448E0,6.743695736E0
1.683396870E-1,7.016831636E-1,7.009649754E0,6.772441387E0
1.703442710E-1,6.921012998E-1,7.009649754E0,6.772441387E0
1.723488540E-1,6.968922615E-1,6.980904102E0,6.772441387E0
1.743534370E-1,7.112650871E-1,6.980904102E0,6.772441387E0
1.763580210E-1,7.016831636E-1,6.976112843E0,6.782023430E0
1.783626040E-1,7.016831636E-1,6.980904102E0,6.767650604E0
1.803671870E-1,6.968922615E-1,6.961740017E0,6.758068562E0
1.823717710E-1,6.968922615E-1,6.971322060E0,6.748486996E0
1.843763540E-1,7.208470106E-1,6.980904102E0,6.758068562E0
1.863809370E-1,7.112650871E-1,6.980904102E0,6.767650604E0
1.883855210E-1,7.016831636E-1,7.000067711E0,6.782023430E0
1.903901040E-1,7.160560489E-1,6.985694885E0,6.777232647E0
1.923946870E-1,7.112650871E-1,6.985694885E0,6.767650604E0
1.943992710E-1,7.112650871E-1,7.004858971E0,6.772441387E0
1.964038540E-1,7.208470106E-1,6.990485668E0,6.777232647E0
1.984084370E-1,7.112650871E-1,6.985694885E0,6.772441387E0
2.004130210E-1,6.968922615E-1,6.976112843E0,6.762859821E0
2.024176040E-1,7.016831636E-1,6.966531277E0,6.762859821E0
2.044221870E-1,6.873103380E-1,6.995276928E0,6.772441387E0
2.064267710E-1,6.921012998E-1,6.976112843E0,6.758068562E0
2.084313540E-1,6.921012998E-1,6.971322060E0,6.758068562E0
2.104359370E-1,7.064741254E-1,6.961740017E0,6.791605473E0
2.124405210E-1,6.729374528E-1,6.971322060E0,6.767650604E0
2.144451040E-1,6.729374528E-1,6.966531277E0,6.767650604E0
2.164496870E-1,6.681464911E-1,6.980904102E0,6.758068562E0
2.184542710E-1,6.729374528E-1,6.990485668E0,6.777232647E0
2.204588540E-1,6.585645676E-1,6.985694885E0,6.762859821E0
2.224634370E-1,6.346098185E-1,6.976112843E0,6.772441387E0
2.244680210E-1,6.537736058E-1,6.976112843E0,6.772441387E0
2.264726040E-1,6.298188567E-1,6.966531277E0,6.758068562E0
2.284771870E-1,6.058640480E-1,6.966531277E0,6.777232647E0
2.304817710E-1,5.962821245E-1,6.980904102E0,6.762859821E0
2.324863540E-1,5.914911628E-1,6.980904102E0,6.767650604E0
2.344909370E-1,5.914911628E-1,6.966531277E0,6.782023430E0
2.364955210E-1,5.867002010E-1,6.966531277E0,6.772441387E0
2.385001040E-1,5.819092393E-1,6.976112843E0,6.786814690E0
2.405046870E-1,5.723273754E-1,6.966531277E0,6.791605473E0
2.425092710E-1,5.771182775E-1,6.961740017E0,6.777232647E0
2.445138540E-1,5.531635284E-1,6.976112843E0,6.791605473E0
2.465184370E-1,5.627454519E-1,6.980904102E0,6.786814690E0
2.485230210E-1,5.819092393E-1,7.004858971E0,6.777232647E0
2.505276040E-1,5.867002010E-1,7.024022579E0,6.782023430E0
2.525321870E-1,5.962821245E-1,7.024022579E0,6.810769081E0
2.545367710E-1,6.010730863E-1,7.014440536E0,6.810769081E0
2.565413540E-1,6.058640480E-1,7.009649754E0,6.796396255E0
2.585459370E-1,6.010730863E-1,7.024022579E0,6.796396255E0
2.605505210E-1,6.106550097E-1,7.000067711E0,6.805978298E0
2.625551040E-1,6.058640480E-1,7.014440536E0,6.791605473E0
2.645596870E-1,6.010730863E-1,7.014440536E0,6.777232647E0
2.665642710E-1,6.154459715E-1,7.014440536E0,6.796396255E0
2.685688540E-1,6.394007206E-1,7.019231796E0,6.786814690E0
2.705734370E-1,6.298188567E-1,7.009649754E0,6.796396255E0
2.725780210E-1,6.346098185E-1,7.004858971E0,6.805978298E0
2.745826040E-1,6.489826441E-1,7.009649754E0,6.782023430E0
2.765871870E-1,6.537736058E-1,7.014440536E0,6.786814690E0
2.785917710E-1,6.489826441E-1,7.004858971E0,6.796396255E0
2.805963540E-1,6.441916823E-1,7.000067711E0,6.786814690E0
2.826009370E-1,6.489826441E-1,6.995276928E0,6.810769081E0
2.846055210E-1,6.441916823E-1,6.995276928E0,6.810769081E0
2.866101040E-1,6.441916823E-1,6.990485668E0,6.820351124E0
2.886146870E-1,6.394007206E-1,6.971322060E0,6.820351124E0
2.906192710E-1,6.441916823E-1,6.961740017E0,6.834723949E0
2.926238540E-1,6.537736058E-1,6.985694885E0,6.834723949E0
2.946284370E-1,6.537736058E-1,6.952158451E0,6.839515209E0
2.966330210E-1,6.633555293E-1,6.932994366E0,6.829933167E0
2.986376040E-1,6.537736058E-1,6.923412323E0,6.829933167E0
3.006421870E-1,6.585645676E-1,6.909039497E0,6.839515209E0
3.026467710E-1,6.537736058E-1,6.909039497E0,6.849096775E0
3.046513540E-1,6.681464911E-1,6.909039497E0,6.839515209E0
3.066559370E-1,6.681464911E-1,6.932994366E0,6.820351124E0
3.086605210E-1,6.681464911E-1,6.894666672E0,6.825141907E0
3.106651040E-1,6.777284145E-1,6.909039497E0,6.834723949E0
3.126696870E-1,6.681464911E-1,6.889875889E0,6.839515209E0
3.146742710E-1,6.729374528E-1,6.875503063E0,6.820351124E0
3.166788540E-1,6.681464911E-1,6.880293846E0,6.825141907E0
3.186834370E-1,6.537736058E-1,6.870711803E0,6.834723949E0
3.206880210E-1,6.585645676E-1,6.899457932E0,6.834723949E0
3.226926040E-1,6.585645676E-1,6.904248714E0,6.829933167E0
3.246971870E-1,6.489826441E-1,6.899457932E0,6.839515209E0
3.267017710E-1,6.441916823E-1,6.870711803E0,6.825141907E0
3.287063540E-1,6.346098185E-1,6.880293846E0,6.820351124E0
3.307109370E-1,6.346098185E-1,6.875503063E0,6.825141907E0
3.327155210E-1,6.250278950E-1,6.880293846E0,6.829933167E0
3.347201040E-1,6.106550097E-1,6.875503063E0,6.829933167E0
3.367246870E-1,6.010730863E-1,6.885084629E0,6.839515209E0
3.387292710E-1,5.867002010E-1,6.899457932E0,6.849096775E0
3.407338540E-1,5.819092393E-1,6.899457932E0,6.849096775E0
3.427384370E-1,5.962821245E-1,6.918621540E0,6.839515209E0
3.447430210E-1,5.819092393E-1,6.928203583E0,6.858678818E0
3.467476040E-1,5.675364137E-1,6.928203583E0,6.868260860E0
3.487521870E-1,5.867002010E-1,6.918621540E0,6.897006512E0
3.507567710E-1,5.627454519E-1,6.928203583E0,6.892215729E0
3.527613540E-1,5.723273754E-1,6.942576408E0,6.873051643E0
3.547659370E-1,5.771182775E-1,6.942576408E0,6.863469601E0
3.567705210E-1,5.579544902E-1,6.942576408E0,6.863469601E0
3.587751040E-1,5.771182775E-1,6.942576408E0,6.868260860E0
3.607796870E-1,5.675364137E-1,6.928203583E0,6.877842426E0
3.627842710E-1,5.771182775E-1,6.937785149E0,6.839515209E0
3.647888540E-1,5.627454519E-1,6.947367191E0,6.858678818E0
3.667934370E-1,5.723273754E-1,6.947367191E0,6.887424469E0
3.687980210E-1,5.579544902E-1,6.937785149E0,6.873051643E0
3.708026040E-1,5.914911628E-1,6.947367191E0,6.868260860E0
3.728071870E-1,5.914911628E-1,6.947367191E0,6.873051643E0
3.748117710E-1,6.058640480E-1,6.947367191E0,6.858678818E0
3.768163540E-1,6.154459715E-1,6.937785149E0,6.863469601E0
3.788209370E-1,6.250278950E-1,6.947367191E0,6.858678818E0
3.808255210E-1,6.394007206E-1,6.918621540E0,6.853888035E0
3.828301040E-1,6.346098185E-1,6.923412323E0,6.849096775E0
3.848346870E-1,6.537736058E-1,6.918621540E0,6.853888035E0
3.868392710E-1,6.633555293E-1,6.909039497E0,6.863469601E0
3.888438540E-1,6.729374528E-1,6.894666672E0,6.820351124E0
3.908484370E-1,6.921012998E-1,6.904248714E0,6.820351124E0
3.928530210E-1,7.064741254E-1,6.880293846E0,6.815560341E0
3.948576040E-1,7.304289341E-1,6.875503063E0,6.815560341E0
3.968621870E-1,7.448018193E-1,6.899457932E0,6.805978298E0
3.988667710E-1,7.495927811E-1,6.899457932E0,6.791605473E0
4.008713540E-1,7.639656067E-1,6.904248714E0,6.772441387E0
4.028759370E-1,7.927113771E-1,6.909039497E0,6.791605473E0
4.048805210E-1,8.166661859E-1,6.913830757E0,6.782023430E0
4.068851040E-1,8.310390115E-1,6.918621540E0,6.786814690E0
4.088896870E-1,8.454118967E-1,6.913830757E0,6.805978298E0
4.108942710E-1,8.549938202E-1,6.909039497E0,6.796396255E0
4.128988540E-1,8.789486289E-1,6.894666672E0,6.801187515E0
4.149034370E-1,9.029033780E-1,6.904248714E0,6.805978298E0
4.169080210E-1,9.124853015E-1,6.894666672E0,6.810769081E0
4.189126040E-1,9.220672250E-1,6.870711803E0,6.801187515E0
4.209171870E-1,9.460219741E-1,6.875503063E0,6.829933167E0
4.229217710E-1,9.603948593E-1,6.870711803E0,6.815560341E0
4.249263540E-1,9.556038976E-1,6.885084629E0,6.810769081E0
4.269309370E-1,9.747677445E-1,6.870711803E0,6.801187515E0
4.289355210E-1,9.699767828E-1,6.875503063E0,6.829933167E0
4.309401040E-1,9.987225533E-1,6.870711803E0,6.825141907E0
4.329446870E-1,9.891406298E-1,6.861130238E0,6.858678818E0
4.349492710E-1,9.795587063E-1,6.870711803E0,6.829933167E0
4.369538540E-1,9.699767828E-1,6.865921021E0,6.858678818E0
4.389584370E-1,9.651858211E-1,6.870711803E0,6.849096775E0
4.409630210E-1,9.556038976E-1,6.851548195E0,6.858678818E0
4.429676040E-1,9.699767828E-1,6.846757412E0,6.858678818E0
4.449721870E-1,9.603948593E-1,6.841966152E0,6.863469601E0
4.469767710E-1,9.460219741E-1,6.832384109E0,6.858678818E0
4.489813540E-1,9.316491485E-1,6.798847675E0,6.839515209E0
4.509859370E-1,9.220672250E-1,6.794056892E0,6.858678818E0
4.529905210E-1,9.029033780E-1,6.803638458E0,6.834723949E0
4.549951040E-1,8.837395310E-1,6.813220501E0,6.834723949E0
4.569996870E-1,8.597847819E-1,6.803638458E0,6.839515209E0
4.590042710E-1,8.454118967E-1,6.803638458E0,6.834723949E0
4.610088540E-1,8.502028584E-1,6.813220501E0,6.829933167E0
4.630134370E-1,8.502028584E-1,6.803638458E0,6.815560341E0
4.650180210E-1,8.454118967E-1,6.803638458E0,6.805978298E0
4.670226040E-1,8.502028584E-1,6.798847675E0,6.820351124E0
4.690271870E-1,8.310390115E-1,6.779683590E0,6.820351124E0
4.710317710E-1,8.358299732E-1,6.803638458E0,6.820351124E0
4.730363540E-1,8.214571476E-1,6.803638458E0,6.810769081E0
4.750409370E-1,8.118752241E-1,6.779683590E0,6.820351124E0
4.770455210E-1,8.022933006E-1,6.770102024E0,6.805978298E0
4.790501040E-1,7.975023389E-1,6.755729198E0,6.801187515E0
4.810546870E-1,8.214571476E-1,6.746147156E0,6.782023430E0
4.830592710E-1,7.975023389E-1,6.750937939E0,6.791605473E0
4.850638540E-1,7.735475302E-1,6.741356373E0,6.786814690E0
4.870684370E-1,7.735475302E-1,6.760519981E0,6.805978298E0
4.890730210E-1,7.687565684E-1,6.770102024E0,6.796396255E0
4.910776040E-1,7.879204154E-1,6.784474850E0,6.796396255E0
4.930821870E-1,7.735475302E-1,6.789265633E0,6.825141907E0
4.950867710E-1,7.927113771E-1,6.794056892E0,6.805978298E0
4.970913540E-1,7.879204154E-1,6.803638458E0,6.805978298E0
4.990959370E-1,8.166661859E-1,6.813220501E0,6.825141907E0
5.011005210E-1,8.070842624E-1,6.803638458E0,6.825141907E0
5.031051040E-1,8.022933006E-1,6.822802544E0,6.825141907E0
5.051096870E-1,8.070842624E-1,6.789265633E0,6.820351124E0
5.071142710E-1,8.118752241E-1,6.794056892E0,6.825141907E0
5.091188540E-1,7.735475302E-1,6.779683590E0,6.796396255E0
5.111234370E-1,7.543837428E-1,6.770102024E0,6.810769081E0
5.131280210E-1,7.591747046E-1,6.774892807E0,6.834723949E0
5.151326040E-1,7.783384919E-1,6.770102024E0,6.834723949E0
5.171371870E-1,7.591747046E-1,6.765310764E0,6.829933167E0
5.191417710E-1,7.591747046E-1,6.750937939E0,6.825141907E0
5.211463540E-1,7.448018193E-1,6.760519981E0,6.839515209E0
5.231509370E-1,7.687565684E-1,6.779683590E0,6.844305992E0
5.251555210E-1,7.256379724E-1,6.784474850E0,6.873051643E0
5.271601040E-1,7.256379724E-1,6.803638458E0,6.839515209E0
5.291646870E-1,7.160560489E-1,6.803638458E0,6.863469601E0
5.311692710E-1,7.160560489E-1,6.779683590E0,6.844305992E0
5.331738540E-1,7.016831636E-1,6.803638458E0,6.825141907E0
5.351784370E-1,6.873103380E-1,6.794056892E0,6.825141907E0
5.371830210E-1,6.825193763E-1,6.794056892E0,6.825141907E0
5.391876040E-1,6.873103380E-1,6.794056892E0,6.805978298E0
5.411921870E-1,6.777284145E-1,6.774892807E0,6.796396255E0
5.431967710E-1,6.729374528E-1,6.774892807E0,6.810769081E0
5.452013540E-1,6.633555293E-1,6.789265633E0,6.786814690E0
5.472059370E-1,6.873103380E-1,6.784474850E0,6.767650604E0
5.492105210E-1,6.681464911E-1,6.765310764E0,6.782023430E0
5.512151040E-1,6.633555293E-1,6.770102024E0,6.777232647E0
5.532196870E-1,6.729374528E-1,6.808429718E0,6.782023430E0
5.552242710E-1,6.489826441E-1,6.789265633E0,6.748486996E0
5.572288540E-1,6.202369332E-1,6.784474850E0,6.738904953E0
5.592334370E-1,6.346098185E-1,6.784474850E0,6.738904953E0
5.612380210E-1,6.058640480E-1,6.803638458E0,6.734114170E0
5.632426040E-1,5.914911628E-1,6.813220501E0,6.705368042E0
5.652471870E-1,5.819092393E-1,6.798847675E0,6.686204433E0
5.672517710E-1,5.579544902E-1,6.794056892E0,6.667040348E0
5.692563540E-1,5.387906432E-1,6.794056892E0,6.667040348E0
5.712609370E-1,5.244178176E-1,6.789265633E0,6.643085957E0
5.732655730E-1,5.196268559E-1,6.794056892E0,6.633503914E0
5.752702080E-1,5.196268559E-1,6.798847675E0,6.628712654E0
5.772748440E-1,5.244178176E-1,6.818011284E0,6.609549046E0
5.792794790E-1,5.148358941E-1,6.818011284E0,6.580803394E0
5.812841150E-1,5.627454519E-1,6.875503063E0,6.585594177E0
5.832887500E-1,5.819092393E-1,6.909039497E0,6.585594177E0
5.852933850E-1,5.914911628E-1,6.947367191E0,6.576012135E0
5.872980210E-1,6.537736058E-1,6.980904102E0,6.580803394E0
5.893026560E-1,6.777284145E-1,7.009649754E0,6.576012135E0
5.913072920E-1,7.495927811E-1,7.000067711E0,6.609549046E0
5.933119270E-1,7.975023389E-1,6.966531277E0,6.614339828E0
5.953165620E-1,8.597847819E-1,6.961740017E0,6.614339828E0
5.973211980E-1,8.741576672E-1,6.961740017E0,6.633503914E0
5.993258330E-1,8.885304928E-1,6.932994366E0,6.633503914E0
6.013304690E-1,9.364401102E-1,6.923412323E0,6.614339828E0
6.033351040E-1,9.508129358E-1,6.889875889E0,6.609549046E0
6.053397400E-1,9.747677445E-1,6.885084629E0,6.614339828E0
6.073443750E-1,1.013095379E0,6.899457932E0,6.628712654E0
6.093490100E-1,1.065795898E0,6.870711803E0,6.652667522E0
6.113536460E-1,1.099332571E0,6.846757412E0,6.676622391E0
6.133582810E-1,1.152033210E0,6.856338978E0,6.667040348E0
6.153629170E-1,1.199942708E0,6.861130238E0,6.671831608E0
6.173675520E-1,1.214315653E0,6.856338978E0,6.681413651E0
6.193721870E-1,1.243061304E0,6.851548195E0,6.690995216E0
6.213768230E-1,1.257434249E0,6.861130238E0,6.705368042E0
6.233814580E-1,1.271807075E0,6.846757412E0,6.748486996E0
6.253860940E-1,1.295761824E0,6.856338978E0,6.671831608E0
6.273907290E-1,1.290970922E0,6.875503063E0,6.695786476E0
6.293953120E-1,1.295761824E0,6.861130238E0,6.710159302E0
6.313998960E-1,1.295761824E0,6.865921021E0,6.690995216E0
6.334044790E-1,1.271807075E0,6.861130238E0,6.714950085E0
6.354090620E-1,1.295761824E0,6.865921021E0,6.753277779E0
6.374136460E-1,1.290970922E0,6.865921021E0,6.753277779E0
6.394182290E-1,1.300552845E0,6.851548195E0,6.772441387E0
6.414228120E-1,1.324507594E0,6.851548195E0,6.777232647E0
6.434273960E-1,1.324507594E0,6.841966152E0,6.820351124E0
6.454319790E-1,1.348462343E0,6.865921021E0,6.762859821E0
6.474365620E-1,1.353253365E0,6.856338978E0,6.772441387E0
6.494411460E-1,1.367626190E0,6.846757412E0,6.719740868E0
6.514457290E-1,1.329298615E0,6.880293846E0,6.695786476E0
6.534503120E-1,1.324507594E0,6.904248714E0,6.700577259E0
6.554548960E-1,1.329298615E0,6.899457932E0,6.690995216E0
6.574594790E-1,1.343671441E0,6.918621540E0,6.705368042E0
6.594640620E-1,1.324507594E0,6.909039497E0,6.714950085E0
6.614686460E-1,1.314925671E0,6.913830757E0,6.719740868E0
6.634732290E-1,1.286179900E0,6.909039497E0,6.724532127E0
6.654778120E-1,1.281388998E0,6.909039497E0,6.724532127E0
6.674823960E-1,1.262225151E0,6.928203583E0,6.719740868E0
6.694869790E-1,1.243061304E0,6.966531277E0,6.724532127E0
6.714915620E-1,1.247852325E0,6.980904102E0,6.729322910E0
6.734961460E-1,1.252643228E0,6.985694885E0,6.710159302E0
6.755007290E-1,1.252643228E0,6.985694885E0,6.695786476E0
6.775053120E-1,1.257434249E0,7.009649754E0,6.705368042E0
6.795098960E-1,1.267016172E0,7.033604622E0,6.667040348E0
6.815144790E-1,1.262225151E0,7.076723099E0,6.657458782E0
6.835190620E-1,1.286179900E0,7.081513882E0,6.686204433E0
6.855236460E-1,1.305343747E0,7.081513882E0,6.628712654E0
6.875282290E-1,1.314925671E0,7.091095924E0,6.638294697E0
6.895328120E-1,1.348462343E0,7.115050793E0,6.690995216E0
6.915373960E-1,1.367626190E0,7.110260010E0,6.695786476E0
6.935419790E-1,1.405953884E0,7.110260010E0,6.676622391E0
6.955465620E-1,1.420326710E0,7.100677967E0,6.633503914E0
6.975511460E-1,1.449072480E0,7.105468750E0,6.652667522E0
6.995557290E-1,1.473027229E0,7.105468750E0,6.657458782E0
7.015603120E-1,1.506564021E0,7.086305141E0,6.643085957E0
7.035648960E-1,1.511354923E0,7.086305141E0,6.633503914E0
7.055694790E-1,1.559264541E0,7.076723099E0,6.585594177E0
7.075740620E-1,1.573637366E0,7.052768230E0,6.571221352E0
7.095786460E-1,1.573637366E0,7.033604622E0,6.561639309E0
7.115832290E-1,1.564055443E0,7.014440536E0,6.547266483E0
7.135878120E-1,1.655083656E0,7.004858971E0,6.576012135E0
7.155923960E-1,1.688620329E0,6.971322060E0,6.652667522E0
7.175969790E-1,1.611965060E0,6.980904102E0,6.604758263E0
7.196015620E-1,1.487400174E0,6.923412323E0,6.580803394E0
7.216061460E-1,1.405953884E0,6.865921021E0,6.552057743E0
7.236107290E-1,1.338880539E0,6.841966152E0,6.513730049E0
7.256153120E-1,1.223897457E0,6.880293846E0,6.307718754E0
7.276198960E-1,1.118496418E0,6.928203583E0,6.255018234E0
7.296244790E-1,1.080168843E0,7.000067711E0,6.202317715E0
7.316290620E-1,1.070586920E0,7.062350273E0,6.226272583E0
7.336336460E-1,1.061004996E0,7.076723099E0,6.255018234E0
7.356382290E-1,1.041841149E0,7.124632835E0,6.255018234E0
7.376428120E-1,1.070586920E0,7.162960529E0,6.322091579E0
7.396473960E-1,1.051423073E0,7.124632835E0,6.312509537E0
7.416519790E-1,1.037050247E0,7.115050793E0,6.302927971E0
7.436565620E-1,1.027468324E0,7.095887184E0,6.331673622E0
7.456611460E-1,1.008304477E0,7.052768230E0,6.322091579E0
7.476657290E-1,9.747677445E-1,7.024022579E0,6.317300797E0
7.496703120E-1,9.364401102E-1,6.990485668E0,6.307718754E0
7.516748960E-1,9.220672250E-1,6.961740017E0,6.307718754E0
7.536794790E-1,8.837395310E-1,6.942576408E0,6.269391060E0
7.556840620E-1,8.502028584E-1,6.923412323E0,6.298136711E0
7.576886460E-1,8.358299732E-1,6.913830757E0,6.269391060E0
7.596932290E-1,7.783384919E-1,6.865921021E0,6.216690540E0
7.616978120E-1,7.256379724E-1,6.885084629E0,6.226272583E0
7.637023960E-1,6.873103380E-1,6.870711803E0,6.192735672E0
7.657069790E-1,6.825193763E-1,6.827593327E0,6.192735672E0
7.677115620E-1,6.298188567E-1,6.832384109E0,6.202317715E0
7.697161460E-1,5.531635284E-1,6.827593327E0,6.144826412E0
7.717207290E-1,5.004630089E-1,6.841966152E0,6.178362846E0
7.737253120E-1,4.860901237E-1,6.818011284E0,6.245436192E0
7.757298960E-1,4.238076806E-1,6.813220501E0,6.226272583E0
7.777344790E-1,3.423614502E-1,6.818011284E0,6.173572063E0
7.797390620E-1,2.657061219E-1,6.822802544E0,6.068171024E0
7.817436460E-1,2.225874960E-1,6.789265633E0,6.130453587E0
7.837482290E-1,2.082146257E-1,6.813220501E0,6.130453587E0
7.857528120E-1,1.555140913E-1,6.760519981E0,6.173572063E0
7.877573960E-1,1.076045260E-1,6.736565113E0,6.187944889E0
7.897619790E-1,8.364973962E-2,6.707819462E0,6.245436192E0
7.917665620E-1,9.323165566E-2,6.669491768E0,6.288555145E0
7.937711460E-1,8.364973962E-2,6.683864594E0,6.235854626E0
7.957757290E-1,7.406783104E-2,6.703028679E0,6.384374142E0
7.977803120E-1,8.844070137E-2,6.669491768E0,6.437074661E0
7.997848960E-1,1.076045260E-1,6.635954857E0,6.302927971E0
8.017894790E-1,5.490399897E-2,6.712610245E0,6.221481323E0
8.037940620E-1,3.574017063E-2,6.760519981E0,6.101707458E0
8.057986460E-1,1.178538427E-2,6.818011284E0,6.029843330E0
8.078032290E-1,-2.587486058E-3,6.885084629E0,5.996306419E0
8.098078120E-1,6.994426250E-3,6.937785149E0,6.077752590E0
8.118123960E-1,3.574017063E-2,6.937785149E0,6.207108498E0
8.138169790E-1,7.406783104E-2,6.961740017E0,6.259809017E0
8.158215620E-1,8.844070137E-2,6.985694885E0,6.288555145E0
8.178261460E-1,1.219773963E-1,6.990485668E0,6.274181843E0
8.198307290E-1,1.555140913E-1,7.038395405E0,6.274181843E0
8.218353120E-1,1.555140913E-1,7.057559490E0,6.202317715E0
8.238398960E-1,1.650960147E-1,7.095887184E0,6.178362846E0
8.258444790E-1,1.842598468E-1,7.043186665E0,6.231063366E0
8.278490620E-1,2.369603664E-1,7.000067711E0,6.245436192E0
8.298536460E-1,2.417513281E-1,7.024022579E0,6.240645409E0
8.318582290E-1,2.369603664E-1,7.124632835E0,6.278973103E0
8.338628120E-1,2.321694046E-1,7.119841576E0,6.360419273E0
8.358673960E-1,2.609151602E-1,6.971322060E0,6.245436192E0
8.378719790E-1,2.513332367E-1,6.980904102E0,6.044216156E0
8.398765620E-1,2.225874960E-1,7.024022579E0,6.092125893E0
8.418811460E-1,1.842598468E-1,7.062350273E0,6.154407978E0
8.438857290E-1,2.752880454E-1,7.081513882E0,6.149617195E0
8.458903120E-1,4.573444128E-1,6.865921021E0,6.063379765E0
8.478948960E-1,4.381805658E-1,6.875503063E0,5.838204861E0
8.498994790E-1,4.333896041E-1,6.856338978E0,5.871741772E0
8.519040620E-1,3.088247180E-1,6.947367191E0,6.144826412E0
8.539086460E-1,1.890507936E-1,7.000067711E0,6.350837231E0
8.559132290E-1,4.532208294E-2,6.971322060E0,6.341255665E0
8.579178120E-1,-9.361566603E-2,6.942576408E0,6.082543850E0
8.599223960E-1,-1.415252388E-1,7.019231796E0,6.044216156E0
8.619269790E-1,-1.750619411E-1,7.028813362E0,6.168780804E0
8.639315620E-1,-2.660901546E-1,7.043186665E0,6.178362846E0
8.659361460E-1,-2.565082312E-1,7.047977448E0,6.173572063E0
8.679407290E-1,-2.565082312E-1,7.043186665E0,6.326882362E0
8.699453120E-1,-2.229715139E-1,7.047977448E0,6.484984398E0
8.719498960E-1,-1.702709794E-1,7.047977448E0,6.729322910E0
8.739544790E-1,-3.133323044E-2,7.004858971E0,6.911379337E0
8.759590620E-1,1.267683506E-1,6.889875889E0,7.093435764E0
8.779636460E-1,1.171864420E-1,6.918621540E0,6.734114170E0
8.799682290E-1,1.076045260E-1,6.918621540E0,6.925752163E0
8.819728120E-1,2.203471959E-3,6.827593327E0,6.920961380E0
8.839773960E-1,-3.612418473E-2,6.693446636E0,7.337774754E0
8.859819790E-1,-4.091514647E-2,6.540135860E0,7.352147579E0
8.879865620E-1,-1.216939837E-2,6.482644558E0,6.705368042E0
8.899911460E-1,-2.654226869E-2,6.559299946E0,6.025052071E0
8.919957290E-1,-1.511071622E-1,6.693446636E0,5.522001743E0
8.940003120E-1,-2.612991929E-1,6.846757412E0,5.172261715E0
8.960048960E-1,-3.092087507E-1,6.961740017E0,5.028533459E0
8.980094790E-1,-3.714911938E-1,7.091095924E0,5.062069893E0
9.000140620E-1,-4.529374838E-1,7.215661049E0,5.076442719E0
9.020186460E-1,-4.912651181E-1,7.321062088E0,5.181843758E0
9.040232290E-1,-4.673103094E-1,7.349807739E0,5.330363750E0
9.060278120E-1,-4.673103094E-1,7.354598522E0,5.454928398E0
9.080323960E-1,-4.481465220E-1,7.292316437E0,5.565120220E0
9.100369790E-1,-3.187906742E-1,7.234824657E0,5.728013039E0
9.120415620E-1,-2.038076967E-1,7.148587704E0,5.967560768E0
9.140461460E-1,-8.403375745E-2,7.000067711E0,6.317300797E0
9.160507290E-1,4.532208294E-2,6.904248714E0,6.638294697E0
9.180553120E-1,1.746779233E-1,6.750937939E0,6.772441387E0
9.200598960E-1,1.938417554E-1,6.655118942E0,6.633503914E0
9.220644790E-1,9.802260995E-2,6.755729198E0,5.890905380E0
9.240690620E-1,-6.007897109E-2,6.995276928E0,5.114770412E0
9.260736460E-1,-6.007897109E-2,7.325852871E0,4.606928825E0
9.280782290E-1,6.448591501E-2,7.737874985E0,4.903968334E0
9.300828120E-1,9.802260995E-2,7.996586800E0,4.918341160E0
9.320873960E-1,2.609151602E-1,8.245717049E0,4.367381096E0
9.340919790E-1,4.477624893E-1,8.470891953E0,4.597347260E0
9.360965620E-1,6.298188567E-1,8.533174515E0,4.530273914E0
9.381011460E-1,7.927113771E-1,8.509219170E0,4.333844662E0
9.401057290E-1,1.065795898E0,8.379863739E0,4.467991352E0
9.421103120E-1,1.219106555E0,8.331954002E0,4.985414505E0
9.441148960E-1,1.319716692E0,8.307998657E0,4.971041679E0
9.461194790E-1,1.415535808E0,8.341535568E0,4.803358078E0
9.481240620E-1,1.530518770E0,8.346326828E0,4.721911907E0
9.501286460E-1,1.597592115E0,8.365490913E0,4.793776512E0
9.521332290E-1,1.707784176E0,8.284044266E0,4.899177551E0
9.541378120E-1,1.755693793E0,8.221761703E0,4.980623722E0
9.561423960E-1,1.813185215E0,8.135524750E0,5.057279110E0
9.581469790E-1,1.899422407E0,8.058869362E0,5.018951416E0
9.601515620E-1,1.980868697E0,7.934304237E0,4.990205765E0
9.621561460E-1,2.038360357E0,7.804948807E0,4.980623722E0
9.641607290E-1,2.110224485E0,7.666010857E0,4.985414505E0
9.661653120E-1,2.143761158E0,7.531864166E0,4.951878071E0
9.681698960E-1,2.124597549E0,7.436044693E0,5.028533459E0
9.701744790E-1,2.177298069E0,7.340225697E0,5.057279110E0
9.721790620E-1,2.215625525E0,7.215661049E0,5.028533459E0
9.741836460E-1,2.196461916E0,7.143796444E0,5.014160156E0
9.761882290E-1,2.196461916E0,7.086305141E0,5.062069893E0
9.781928650E-1,2.167716026E0,7.067141056E0,5.052487850E0
9.801975000E-1,2.191670895E0,6.985694885E0,5.076442719E0
9.822021350E-1,2.201252699E0,6.913830757E0,5.033324242E0
9.842067710E-1,2.210834742E0,6.837175369E0,5.047697067E0
9.862114060E-1,2.028778315E0,6.803638458E0,5.028533459E0
9.882160420E-1,2.004823685E0,6.736565113E0,4.870431423E0
9.902206770E-1,2.110224485E0,6.698237419E0,5.143516064E0
9.922253120E-1,2.100642681E0,6.741356373E0,5.512419701E0
9.942299480E-1,2.091060638E0,6.726983070E0,5.632194042E0
9.962345830E-1,2.153343201E0,6.664700985E0,5.545956612E0
9.982392190E-1,2.129388332E0,6.645536900E0,5.522001743E0
1.000243854E0,2.105433702E0,6.645536900E0,5.536374569E0
1.002248490E0,2.134179354E0,6.554508686E0,5.430973530E0
1.004253125E0,2.091060638E0,6.516180992E0,5.522001743E0
1.006257760E0,2.052733183E0,6.425152779E0,5.541165829E0
1.008262396E0,1.985659719E0,6.434734821E0,5.617820740E0
1.010267031E0,1.913795352E0,6.458689690E0,5.636984825E0
1.012271667E0,1.841930985E0,6.511390209E0,5.660939693E0
1.014276302E0,1.794021368E0,6.588045597E0,5.593866348E0
1.016280937E0,1.693411350E0,6.635954857E0,5.512419701E0
1.018285573E0,1.659874558E0,6.722192287E0,5.474092007E0
1.020290208E0,1.611965060E0,6.798847675E0,5.464510441E0
1.022294844E0,1.559264541E0,6.822802544E0,5.292036057E0
1.024299479E0,1.439490557E0,6.818011284E0,5.038115025E0
1.026304115E0,1.578428388E0,6.841966152E0,5.076442719E0
1.028308750E0,1.655083656E0,6.861130238E0,5.181843758E0
1.030313385E0,1.573637366E0,6.885084629E0,5.167470932E0
1.032318021E0,1.501773000E0,6.904248714E0,5.162680149E0
1.034322656E0,1.487400174E0,6.947367191E0,5.205798626E0
1.036327240E0,1.511354923E0,7.028813362E0,5.210589409E0
1.038331823E0,1.530518770E0,7.115050793E0,5.177052975E0
1.040336406E0,1.511354923E0,7.239615440E0,5.023742199E0
1.042340990E0,1.549682617E0,7.330643654E0,4.937505245E0
1.044345573E0,1.578428388E0,7.378553391E0,4.875222683E0
1.046350156E0,1.597592115E0,7.450417995E0,5.009369373E0
1.048354740E0,1.640710831E0,7.522282124E0,4.966250896E0
1.050359323E0,1.683829427E0,7.551027775E0,4.932713985E0
1.052363906E0,1.659874558E0,7.570191860E0,4.822522163E0
1.054368490E0,1.702993274E0,7.570191860E0,4.803358078E0
1.056373073E0,1.741320848E0,7.661220074E0,4.798567295E0
1.058377656E0,1.798812389E0,7.761829853E0,4.784194469E0
1.060382240E0,1.817976236E0,7.848067284E0,4.606928825E0
1.062386823E0,1.803603292E0,7.876812935E0,4.439245701E0
1.064391406E0,1.808394313E0,7.895977020E0,4.233234406E0
1.066395990E0,1.846721888E0,7.919931412E0,4.036805153E0
1.068400573E0,1.947332025E0,7.891185760E0,4.142206192E0
1.070405156E0,2.043151140E0,7.943886280E0,4.228443146E0
1.072409740E0,2.076687813E0,7.982213974E0,4.305098534E0
1.074414323E0,2.095851660E0,8.025332451E0,4.242815971E0
1.076418906E0,2.162925005E0,8.044496536E0,4.204488277E0
1.078423490E0,2.210834742E0,8.006168365E0,4.285934925E0
1.080428073E0,2.239580393E0,8.034914017E0,4.338635445E0
1.082432656E0,2.287489891E0,8.092406273E0,4.266770840E0
1.084437240E0,2.297071934E0,8.121151924E0,4.247607231E0
1.086441823E0,2.301862955E0,8.154688835E0,4.084714413E0
1.088446406E0,2.359354258E0,8.193016052E0,3.888285398E0
1.090450990E0,2.402472973E0,8.240925789E0,3.768511534E0
1.092455573E0,2.503082991E0,8.255298615E0,3.639155626E0
1.094460156E0,2.565365553E0,8.221761703E0,3.490636110E0
1.096464740E0,2.531828880E0,8.307998657E0,3.375653028E0
1.098469323E0,2.646811724E0,8.399026871E0,3.303788662E0
1.100473906E0,2.809704304E0,8.399026871E0,3.394816875E0
1.102478490E0,2.953433037E0,8.389445305E0,3.452308416E0
1.104483073E0,2.958224058E0,8.413399696E0,3.643946648E0
1.106487656E0,3.063625097E0,8.470891953E0,3.720602036E0
1.108492240E0,3.082788944E0,8.518801689E0,3.711019993E0
1.110496823E0,3.077997923E0,8.561920166E0,3.605618954E0
1.112501406E0,3.159444094E0,8.643365860E0,3.442726374E0
1.114505990E0,3.312754869E0,8.672111511E0,3.179223776E0
1.116510573E0,3.322336674E0,8.720021248E0,2.958839655E0
1.118515156E0,3.398992062E0,8.758349419E0,3.011540174E0
1.120519740E0,3.418155909E0,8.839795113E0,2.954048872E0
1.122524323E0,3.466065407E0,8.959568977E0,2.882184505E0
1.124528906E0,3.518765926E0,8.954778671E0,2.863020658E0
1.126533490E0,3.628957987E0,9.050597191E0,2.824692965E0
1.128538073E0,3.696031332E0,9.098506927E0,2.752828598E0
1.130542656E0,3.734359026E0,9.093715668E0,2.748037577E0
1.132547240E0,3.777477741E0,9.050597191E0,2.709709883E0
1.134551823E0,3.969115973E0,9.127252579E0,2.767201424E0
1.136556406E0,4.060143948E0,9.132043839E0,2.795947313E0
1.138560990E0,4.064935207E0,9.045806885E0,2.891766310E0
1.140565573E0,4.155963421E0,9.155998230E0,2.858229637E0
1.142570156E0,4.285319328E0,9.232653618E0,2.920512199E0
1.144574740E0,4.333228588E0,9.323681831E0,2.795947313E0
1.146579323E0,4.318855762E0,9.318890572E0,2.786365271E0
1.148583906E0,4.357183456E0,9.328473091E0,2.776783466E0
1.150588490E0,4.433838844E0,9.371591568E0,2.776783466E0
1.152593073E0,4.548821926E0,9.476992607E0,2.733664751E0
1.154597656E0,4.625476837E0,9.510529518E0,2.771992445E0
1.156602240E0,4.706923485E0,9.563229561E0,2.676173210E0
1.158606823E0,4.702132225E0,9.596766472E0,2.647427559E0
1.160611406E0,4.754832745E0,9.548856735E0,2.594727039E0
1.162615990E0,4.841070175E0,9.520111084E0,2.661800385E0
1.164620573E0,4.941680431E0,9.496156693E0,2.680964231E0
1.166625156E0,5.071035862E0,9.472201347E0,2.685755253E0
1.168629740E0,5.166855335E0,9.424292564E0,2.748037577E0
1.170634323E0,5.229137421E0,9.390755653E0,2.724082947E0
1.172638906E0,5.209973812E0,9.395545959E0,2.551608324E0
1.174643490E0,5.291419983E0,9.390755653E0,2.618681908E0
1.176648073E0,5.415985107E0,9.414710045E0,2.719291925E0
1.178652656E0,5.502222061E0,9.405128479E0,2.676173210E0
1.180657240E0,5.540549755E0,9.424292564E0,2.628263712E0
1.182661823E0,5.626787186E0,9.395545959E0,2.633054733E0
1.184666406E0,5.679487705E0,9.371591568E0,2.695337057E0
1.186670990E0,5.746561050E0,9.385964394E0,2.743246794E0
1.188675573E0,5.813634396E0,9.390755653E0,2.709709883E0
1.190680156E0,5.890289783E0,9.390755653E0,2.791156292E0
1.192684740E0,5.914244652E0,9.390755653E0,2.724082947E0
1.194689323E0,5.990900040E0,9.362010002E0,2.791156292E0
1.196693906E0,6.034018517E0,9.371591568E0,2.781574249E0
1.198698490E0,6.062764168E0,9.433874130E0,2.743246794E0
1.200703073E0,6.024436474E0,9.457828522E0,2.810320139E0
1.202707656E0,6.091509819E0,9.438665390E0,2.920512199E0
1.204712240E0,6.101091862E0,9.496156693E0,2.949257851E0
1.206716823E0,6.057973385E0,9.568020821E0,2.934885025E0
1.208721406E0,6.019645691E0,9.635094643E0,2.992376566E0
1.210725990E0,6.000481606E0,9.663840294E0,3.083404541E0
1.212730573E0,5.904662609E0,9.769241333E0,3.140896082E0
1.214735156E0,5.837589264E0,9.836314201E0,3.160059929E0
1.216739740E0,5.751351833E0,9.860269547E0,3.184014797E0
1.218744323E0,5.669905663E0,9.893805504E0,3.265460968E0
1.220748906E0,5.602832317E0,9.951297760E0,3.289415836E0
1.222753490E0,5.497431278E0,9.936924934E0,3.366071224E0
1.224758073E0,5.382448196E0,9.941715240E0,3.452308416E0
1.226762656E0,5.286629200E0,9.951297760E0,3.505008936E0
1.228767240E0,5.157273293E0,9.951297760E0,3.600827932E0
1.230771823E0,5.056663036E0,9.951297760E0,3.653528452E0
1.232776406E0,4.965634823E0,9.917760849E0,3.687065125E0
1.234780990E0,4.836279392E0,9.898596764E0,3.758929491E0
1.236785573E0,4.735669136E0,9.932133675E0,3.754138708E0
1.238790156E0,4.635058880E0,9.946506500E0,3.768511534E0
1.240794740E0,4.558403492E0,9.960879326E0,3.782884359E0
1.242799323E0,4.457793713E0,9.975252151E0,3.826003075E0
1.244803906E0,4.405093193E0,9.999206543E0,3.854748726E0
1.246808490E0,4.342810631E0,1.001837063E1,3.816421032E0
1.248813073E0,4.304482937E0,1.003274345E1,3.821212053E0
1.250817656E0,4.256573200E0,1.006148911E1,3.806839228E0
1.252822240E0,4.218245506E0,1.011898041E1,3.787675381E0
1.254826823E0,4.165544987E0,1.015730858E1,3.778093338E0
1.256831406E0,4.165544987E0,1.017168140E1,3.792466402E0
1.258835990E0,4.132008553E0,1.017168140E1,3.787675381E0
1.260840573E0,4.103262901E0,1.020521832E1,3.744556665E0
1.262845156E0,4.103262901E0,1.022917271E1,3.711019993E0
1.264849740E0,4.084098816E0,1.022917271E1,3.663110495E0
1.266854323E0,4.069725990E0,1.024354553E1,3.629573822E0
1.268858906E0,4.069725990E0,1.021959114E1,3.600827932E0
1.270863490E0,4.060143948E0,1.022438240E1,3.576873302E0
1.272868073E0,4.074516773E0,1.021000862E1,3.548127413E0
1.274872656E0,4.103262901E0,1.019084549E1,3.519381762E0
1.276877240E0,4.098471642E0,1.017647266E1,3.447517395E0
1.278881823E0,4.108053684E0,1.012856293E1,3.375653028E0
1.280886406E0,4.122426510E0,1.009023476E1,3.361280203E0
1.282890990E0,4.141590595E0,1.005669880E1,3.298997641E0
1.284895573E0,4.184709072E0,1.001837063E1,3.294206858E0
1.286900156E0,4.237409592E0,9.975252151E0,3.255879164E0
1.288904740E0,4.237409592E0,9.960879326E0,3.198387623E0
1.290909323E0,4.270946026E0,9.951297760E0,3.169641972E0
1.292913906E0,4.304482937E0,9.917760849E0,3.097777605E0
1.294918490E0,4.357183456E0,9.912969589E0,3.073822737E0
1.296923073E0,4.400301933E0,9.922552109E0,3.025913239E0
1.298927656E0,4.438629627E0,9.927342415E0,2.968421698E0
1.300932240E0,4.472166538E0,9.951297760E0,2.958839655E0
1.302936823E0,4.448211670E0,9.956088066E0,2.891766310E0
1.304941406E0,4.453002453E0,1.000399780E1,2.834274769E0
1.306945990E0,4.462584496E0,1.004232597E1,2.728873730E0
1.308950573E0,4.481748104E0,1.006148911E1,2.709709883E0
1.310955156E0,4.505702972E0,1.004711628E1,2.661800385E0
1.312959740E0,4.481748104E0,1.005669880E1,2.618681908E0
1.314964323E0,4.515285015E0,1.006628036E1,2.542026520E0
1.316968958E0,4.476957321E0,1.009981728E1,2.412670612E0
1.318973594E0,4.577567577E0,1.011419010E1,2.403088808E0
1.320978229E0,4.630268097E0,1.012856293E1,2.450998306E0
1.322982865E0,4.639850140E0,1.015730858E1,2.455789328E0
1.324987500E0,4.591940403E0,1.019084549E1,2.331224442E0
1.326992135E0,4.639850140E0,1.018126297E1,2.283314705E0
1.328996771E0,4.673386574E0,1.018605423E1,2.336015224E0
1.331001406E0,4.682968616E0,1.016209984E1,2.235405207E0
1.333006042E0,4.649431705E0,1.017168140E1,2.173122644E0
1.335010677E0,4.635058880E0,1.015251732E1,2.177913666E0
1.337015312E0,4.596731186E0,1.014293575E1,2.130004168E0
1.339019948E0,4.587149620E0,1.010939884E1,2.096467495E0
1.341024583E0,4.567985535E0,1.006628036E1,2.134795189E0
1.343029219E0,4.539239883E0,1.006148911E1,2.110840321E0
1.345033854E0,4.505702972E0,1.001837063E1,2.101258278E0
1.347038490E0,4.443420887E0,9.994416237E0,2.163540840E0
1.349043125E0,4.385929108E0,9.970460892E0,2.096467495E0
1.351047760E0,4.385929108E0,9.951297760E0,2.072512627E0
1.353052396E0,4.314064980E0,9.956088066E0,2.038975954E0
1.355057031E0,4.208663940E0,9.951297760E0,2.005439281E0
1.357061667E0,4.122426510E0,9.951297760E0,1.986275434E0
1.359066302E0,4.036189556E0,9.956088066E0,1.991066456E0
1.361070937E0,3.935579300E0,9.984833717E0,1.995857358E0
1.363075573E0,3.815805197E0,1.000399780E1,1.971902609E0
1.365080208E0,3.676867485E0,1.000878906E1,1.971902609E0
1.367084844E0,3.566675425E0,1.004232597E1,1.991066456E0
1.369089479E0,3.432528734E0,1.005669880E1,1.962320685E0
1.371094115E0,3.317545652E0,1.008065319E1,1.967111588E0
1.373098750E0,3.188189983E0,1.010939884E1,1.991066456E0
1.375103385E0,3.092370749E0,1.013814449E1,2.019812107E0
1.377107969E0,3.025297403E0,1.015251732E1,2.048557758E0
1.379112552E0,2.915105343E0,1.017647266E1,2.048557758E0
1.381117135E0,2.886359692E0,1.022438240E1,2.082094669E0
1.383121719E0,2.852823019E0,1.023875523E1,2.086885452E0
1.385126302E0,2.833659172E0,1.023875523E1,2.062930822E0
1.387130885E0,2.785749435E0,1.023875523E1,2.058139801E0
1.389135469E0,2.761794806E0,1.023875523E1,2.024603128E0
1.391140052E0,2.704303265E0,1.024354553E1,2.005439281E0
1.393144635E0,2.680348396E0,1.021000862E1,1.991066456E0
1.395149219E0,2.670766592E0,1.021959114E1,1.971902609E0
1.397153802E0,2.651602745E0,1.018605423E1,1.909620166E0
1.399158385E0,2.622857094E0,1.017647266E1,1.900038242E0
1.401162969E0,2.598902225E0,1.014772701E1,1.852128625E0
1.403167552E0,2.579738379E0,1.009023476E1,1.823382974E0
1.405172135E0,2.584529400E0,1.003753471E1,1.794637203E0
1.407176719E0,2.589320183E0,1.001837063E1,1.756309509E0
1.409181302E0,2.565365553E0,9.970460892E0,1.737145662E0
1.411185885E0,2.560574532E0,9.936924934E0,1.722772837E0
1.413190469E0,2.536619663E0,9.917760849E0,1.717981935E0
1.415195052E0,2.541410685E0,9.879432678E0,1.708400011E0
1.417199635E0,2.555783510E0,9.821941376E0,1.708400011E0
1.419204219E0,2.546201706E0,9.764450073E0,1.684445143E0
1.421208802E0,2.517455816E0,9.706958771E0,1.698818088E0
1.423213385E0,2.527037859E0,9.644676208E0,1.703608990E0
1.425217969E0,2.512665033E0,9.601557732E0,1.684445143E0
1.427222552E0,2.464755297E0,9.544066429E0,1.636535645E0
1.429227135E0,2.450382471E0,9.505738258E0,1.646117568E0
1.431231719E0,2.479128361E0,9.453038216E0,1.646117568E0
1.433236302E0,2.464755297E0,9.419501305E0,1.636535645E0
1.435240885E0,2.431218624E0,9.381173134E0,1.593417048E0
1.437245469E0,2.416845798E0,9.385964394E0,1.564671278E0
1.439250052E0,2.383309126E0,9.371591568E0,1.516761661E0
1.441254635E0,2.402472973E0,9.357218742E0,1.507179737E0
1.443259219E0,2.388100147E0,9.342845917E0,1.507179737E0
1.445263802E0,2.349772453E0,9.285354614E0,1.502388835E0
1.447268385E0,2.340190411E0,9.270981789E0,1.535925508E0
1.449272969E0,2.354563475E0,9.256608963E0,1.521552682E0
1.451277552E0,2.349772453E0,9.232653618E0,1.526343584E0
1.453282135E0,2.306653738E0,9.223072052E0,1.507179737E0
1.455286719E0,2.311444759E0,9.189535141E0,1.507179737E0
1.457291302E0,2.287489891E0,9.189535141E0,1.507179737E0
1.459295885E0,2.292280912E0,9.170371056E0,1.492806911E0
1.461300469E0,2.258744240E0,9.151207924E0,1.468852162E0
1.463305052E0,2.239580393E0,9.136835098E0,1.449688315E0
1.465309635E0,2.210834742E0,9.112879753E0,1.444897294E0
1.467314219E0,2.191670895E0,9.079342842E0,1.425733447E0
1.469318802E0,2.162925005E0,9.074552536E0,1.392196774E0
1.471323385E0,2.158134222E0,9.031434059E0,1.396987796E0
1.473327969E0,2.119806528E0,9.002687454E0,1.416151524E0
1.475332552E0,2.115015507E0,8.964360237E0,1.411360621E0
1.477337135E0,2.100642681E0,8.973941803E0,1.420942545E0
1.479341719E0,2.076687813E0,8.916450500E0,1.430524468E0
1.481346302E0,2.091060638E0,8.878123283E0,1.444897294E0
1.483350885E0,2.038360357E0,8.882913589E0,1.435315371E0
1.485355469E0,2.047942162E0,8.854167938E0,1.459270239E0
1.487360052E0,2.014405489E0,8.835004807E0,1.468852162E0
1.489364635E0,1.985659719E0,8.825422287E0,1.459270239E0
1.491369219E0,1.971286774E0,8.858959198E0,1.464061141E0
1.493373802E0,1.985659719E0,8.858959198E0,1.440106392E0
1.495378385E0,1.952123046E0,8.863750458E0,1.440106392E0
1.497382969E0,1.952123046E0,8.863750458E0,1.440106392E0
1.499387552E0,1.928168178E0,8.863750458E0,1.425733447E0
1.501392135E0,1.928168178E0,8.858959198E0,1.411360621E0
1.503396719E0,1.918586254E0,8.820631981E0,1.396987796E0
1.505401302E0,1.913795352E0,8.835004807E0,1.382614851E0
1.507405885E0,1.885049582E0,8.811049461E0,1.377823949E0
1.509410469E0,1.856303811E0,8.811049461E0,1.363451004E0
1.511415052E0,1.832349062E0,8.806258202E0,1.358660102E0
1.513419635E0,1.789230466E0,8.806258202E0,1.363451004E0
1.515424219E0,1.755693793E0,8.806258202E0,1.334705353E0
1.517428802E0,1.736529946E0,8.787095070E0,1.315541506E0
1.519433385E0,1.717366099E0,8.815840721E0,1.329914331E0
1.521437969E0,1.674247503E0,8.815840721E0,1.310750484E0
1.523442552E0,1.655083656E0,8.830213547E0,1.267631888E0
1.525447135E0,1.616755962E0,8.849377632E0,1.238886118E0
1.527451719E0,1.621546984E0,8.873332024E0,1.210140347E0
1.529456302E0,1.621546984E0,8.863750458E0,1.181394696E0
1.531460885E0,1.588010311E0,8.892496109E0,1.186185598E0
1.533465469E0,1.568846464E0,8.897286415E0,1.147857904E0
1.535470052E0,1.592801213E0,8.921241760E0,1.138275981E0
1.537474635E0,1.592801213E0,8.964360237E0,1.119112253E0
1.539479219E0,1.611965060E0,9.002687454E0,1.104739308E0
1.541483802E0,1.645501733E0,9.031434059E0,1.075993538E0
1.543488385E0,1.611965060E0,9.093715668E0,1.080784559E0
1.545492969E0,1.597592115E0,9.079342842E0,9.945473075E-1
1.547497552E0,1.568846464E0,9.064970016E0,9.705924988E-1
1.549502135E0,1.578428388E0,9.060179710E0,9.370558262E-1
1.551506719E0,1.597592115E0,9.079342842E0,9.035190940E-1
1.553511302E0,1.635919809E0,9.122462273E0,8.651914597E-1
1.555515885E0,1.645501733E0,9.112879753E0,8.556095362E-1
1.557520469E0,1.611965060E0,9.184743881E0,8.843553066E-1
1.559525052E0,1.621546984E0,9.184743881E0,8.412366509E-1
1.561529635E0,1.631128907E0,9.223072052E0,8.172819018E-1
1.563534219E0,1.597592115E0,9.227863312E0,7.933270931E-1
1.565538802E0,1.621546984E0,9.299727440E0,7.549994588E-1
1.567543385E0,1.611965060E0,9.314100266E0,7.262536883E-1
1.569547969E0,1.626337886E0,9.338054657E0,6.975079775E-1
1.571552552E0,1.702993274E0,9.333264351E0,6.975079775E-1
1.573557135E0,1.717366099E0,9.299727440E0,6.687622070E-1
1.575561719E0,1.650292635E0,9.328473091E0,6.591803432E-1
1.577566302E0,1.683829427E0,9.285354614E0,6.256436110E-1
1.579570885E0,1.607174039E0,9.280563354E0,5.873159766E-1
1.581575469E0,1.621546984E0,9.266190529E0,5.777340531E-1
1.583580052E0,1.650292635E0,9.280563354E0,5.921069384E-1
1.585584635E0,1.655083656E0,9.213489532E0,5.921069384E-1
1.587589219E0,1.655083656E0,9.179953575E0,6.304345727E-1
1.589593802E0,1.726948023E0,9.127252579E0,6.208526492E-1
1.591598385E0,1.784439445E0,9.189535141E0,6.639712453E-1
1.593602969E0,1.765275717E0,9.179953575E0,6.591803432E-1
1.595607552E0,1.765275717E0,9.155998230E0,6.304345727E-1
1.597612135E0,1.817976236E0,9.155998230E0,6.352255344E-1
1.599616719E0,1.803603292E0,9.151207924E0,6.639712453E-1
1.601621302E0,1.817976236E0,9.122462273E0,6.687622070E-1
1.603625885E0,1.832349062E0,9.117671013E0,6.687622070E-1
1.605630469E0,1.827558160E0,9.160789490E0,6.783441305E-1
1.607635052E0,1.813185215E0,9.141625404E0,6.591803432E-1
1.609639635E0,1.918586254E0,9.117671013E0,7.214627862E-1
1.611644219E0,1.928168178E0,9.170371056E0,7.214627862E-1
1.613648802E0,1.928168178E0,9.141625404E0,7.118808627E-1
1.615653385E0,1.947332025E0,9.184743881E0,7.358356118E-1
1.617657969E0,1.976077795E0,9.184743881E0,7.214627862E-1
1.619662604E0,1.961704850E0,9.189535141E0,7.502084970E-1
1.621667240E0,1.899422407E0,9.237444878E0,7.118808627E-1
1.623671875E0,1.889840603E0,9.189535141E0,6.495984197E-1
1.625676510E0,1.889840603E0,9.170371056E0,6.543893814E-1
1.627681146E0,1.870676756E0,9.237444878E0,6.591803432E-1
1.629685781E0,1.856303811E0,9.256608963E0,6.352255344E-1
1.631690417E0,1.880258679E0,9.237444878E0,6.160616875E-1
1.633695052E0,1.880258679E0,9.237444878E0,6.160616875E-1
1.635699687E0,1.817976236E0,9.213489532E0,5.968979001E-1
1.637704323E0,1.808394313E0,9.194326401E0,5.633611679E-1
1.639708958E0,1.803603292E0,9.261399269E0,6.208526492E-1
1.641713594E0,1.794021368E0,9.266190529E0,6.160616875E-1
1.643718229E0,1.837139964E0,9.242236137E0,6.495984197E-1
1.645722865E0,1.837139964E0,9.251817703E0,6.783441305E-1
1.647727500E0,1.808394313E0,9.294936180E0,6.735531688E-1
1.649732135E0,1.717366099E0,9.304517746E0,7.022989392E-1
1.651736771E0,1.698202252E0,9.318890572E0,7.166718245E-1
1.653741406E0,1.635919809E0,9.362010002E0,7.262536883E-1
1.655746042E0,1.631128907E0,9.362010002E0,7.597904205E-1
1.657750677E0,1.559264541E0,9.318890572E0,7.693722844E-1
1.659755312E0,1.544891596E0,9.395545959E0,8.220728636E-1
1.661759948E0,1.477818251E0,9.491365433E0,8.316547275E-1
1.663764583E0,1.535309672E0,9.462619781E0,8.795643449E-1
1.665769219E0,1.506564021E0,9.496156693E0,9.226829410E-1
1.667773854E0,1.482609153E0,9.572812080E0,9.370558262E-1
1.669778490E0,1.449072480E0,9.572812080E0,9.370558262E-1
1.671783125E0,1.453863502E0,9.596766472E0,9.370558262E-1
1.673787760E0,1.338880539E0,9.687794685E0,9.178919792E-1
1.675792396E0,1.252643228E0,9.754868507E0,9.035190940E-1
1.677797031E0,1.094541669E0,9.865059853E0,8.699824214E-1
1.679801667E0,1.061004996E0,9.812359810E0,8.220728636E-1
1.681806250E0,1.089750767E0,9.889015198E0,9.035190940E-1
1.683810833E0,1.056213975E0,9.975252151E0,9.131010175E-1
1.685815417E0,1.027468324E0,1.006148911E1,9.131010175E-1
1.687820000E0,1.032259226E0,1.008065319E1,9.131010175E-1
1.689824583E0,8.981124163E-1,1.012856293E1,8.556095362E-1
1.691829167E0,8.022933006E-1,1.023396397E1,8.172819018E-1
1.693833750E0,7.304289341E-1,1.026750088E1,7.837451696E-1
1.695838333E0,7.687565684E-1,1.031061935E1,7.885361314E-1
1.697842917E0,7.687565684E-1,1.037769222E1,8.124909401E-1
1.699847500E0,6.873103380E-1,1.041602039E1,7.693722844E-1
1.701852083E0,7.256379724E-1,1.041602039E1,7.358356118E-1
1.703856667E0,8.933214545E-1,1.031540966E1,6.831350923E-1
1.705861250E0,8.262480497E-1,1.042081165E1,6.783441305E-1
1.707865833E0,6.729374528E-1,1.057412148E1,7.214627862E-1
1.709870417E0,5.435816050E-1,1.061723995E1,7.310446501E-1
1.711875000E0,4.381805658E-1,1.063161373E1,6.879260540E-1
1.713879583E0,3.854800463E-1,1.063640404E1,6.879260540E-1
1.715884167E0,2.944518328E-1,1.066035938E1,6.495984197E-1
1.717888750E0,2.321694046E-1,1.071305943E1,6.160616875E-1
1.719893333E0,2.800789773E-1,1.071785069E1,6.112707257E-1
1.721897917E0,2.752880454E-1,1.072743225E1,6.256436110E-1
1.723902500E0,3.040337563E-1,1.071785069E1,6.687622070E-1
1.725907083E0,2.657061219E-1,1.072743225E1,6.783441305E-1
1.727911667E0,2.513332367E-1,1.072264194E1,7.118808627E-1
1.729916250E0,2.657061219E-1,1.066035938E1,6.591803432E-1
1.731920833E0,2.944518328E-1,1.059807682E1,6.591803432E-1
1.733925417E0,2.609151602E-1,1.064119530E1,6.591803432E-1
1.735930000E0,2.465422899E-1,1.064598656E1,7.022989392E-1
1.737934583E0,2.465422899E-1,1.062203121E1,6.879260540E-1
1.739939167E0,2.657061219E-1,1.063640404E1,7.118808627E-1
1.741943750E0,2.800789773E-1,1.057891273E1,7.166718245E-1
1.743948333E0,3.136156797E-1,1.052621269E1,7.166718245E-1
1.745952917E0,2.704970837E-1,1.051183891E1,7.262536883E-1
1.747957500E0,2.848699391E-1,1.049267578E1,7.358356118E-1
1.749962083E0,2.513332367E-1,1.048309326E1,7.502084970E-1
1.751966667E0,2.752880454E-1,1.047351170E1,7.454175353E-1
1.753971250E0,2.992427945E-1,1.044955730E1,7.358356118E-1
1.755975833E0,2.896609008E-1,1.045434761E1,7.262536883E-1
1.757980417E0,3.184066415E-1,1.044955730E1,7.549994588E-1
1.759985000E0,2.657061219E-1,1.043518448E1,7.645813823E-1
1.761989583E0,2.561241984E-1,1.040643787E1,7.262536883E-1
1.763994167E0,2.992427945E-1,1.037290192E1,7.454175353E-1
1.765998750E0,3.040337563E-1,1.035373783E1,8.364456892E-1
1.768003333E0,2.944518328E-1,1.032978344E1,8.556095362E-1
1.770007917E0,2.944518328E-1,1.032978344E1,8.460276127E-1
1.772012500E0,2.465422899E-1,1.031540966E1,8.220728636E-1
1.774017083E0,1.842598468E-1,1.028187370E1,8.076999784E-1
1.776021667E0,1.363502741E-1,1.029145527E1,8.124909401E-1
1.778026250E0,1.698869765E-1,1.025791836E1,8.124909401E-1
1.780030833E0,1.650960147E-1,1.025791836E1,8.172819018E-1
1.782035417E0,1.315593123E-1,1.023875523E1,8.029090166E-1
1.784040000E0,1.219773963E-1,1.023396397E1,7.885361314E-1
1.786044583E0,1.315593123E-1,1.024833679E1,8.029090166E-1
1.788049167E0,1.267683506E-1,1.025791836E1,7.789542079E-1
1.790053750E0,1.363502741E-1,1.027708244E1,7.981180549E-1
1.792058333E0,1.507231444E-1,1.024833679E1,8.029090166E-1
1.794062917E0,1.315593123E-1,1.024354553E1,7.837451696E-1
1.796067500E0,1.650960147E-1,1.023396397E1,7.693722844E-1
1.798072083E0,1.507231444E-1,1.022917271E1,7.358356118E-1
1.800076667E0,1.363502741E-1,1.023875523E1,7.502084970E-1
1.802081250E0,1.794688851E-1,1.026750088E1,7.502084970E-1
1.804085833E0,2.130055875E-1,1.027708244E1,7.597904205E-1
1.806090417E0,2.321694046E-1,1.023396397E1,7.454175353E-1
1.808095000E0,2.130055875E-1,1.024833679E1,7.310446501E-1
1.810099583E0,1.746779233E-1,1.025312805E1,7.166718245E-1
1.812104167E0,1.698869765E-1,1.024833679E1,7.166718245E-1
1.814108750E0,1.603050530E-1,1.022438240E1,7.358356118E-1
1.816113333E0,1.555140913E-1,1.027229118E1,7.262536883E-1
1.818117917E0,1.315593123E-1,1.029624653E1,7.166718245E-1
1.820122500E0,1.028135717E-1,1.028666401E1,6.927170157E-1
1.822127083E0,1.794688851E-1,1.025312805E1,7.166718245E-1
1.824131667E0,1.938417554E-1,1.027708244E1,6.879260540E-1
1.826136250E0,1.411412358E-1,1.036331940E1,7.070899010E-1
1.828140833E0,6.448591501E-2,1.039206505E1,7.502084970E-1
1.830145417E0,-2.654226869E-2,1.038248348E1,7.358356118E-1
1.832150000E0,7.885878533E-2,1.040643787E1,7.789542079E-1
1.834154583E0,4.532208294E-2,1.041122913E1,8.364456892E-1
1.836159167E0,2.136730030E-2,1.043518448E1,8.604004979E-1
1.838163750E0,-2.175131440E-2,1.043997478E1,8.316547275E-1
1.840168333E0,-4.091514647E-2,1.043518448E1,8.364456892E-1
1.842172917E0,-2.175131440E-2,1.042560196E1,8.412366509E-1
1.844177500E0,-4.091514647E-2,1.043518448E1,8.460276127E-1
1.846182083E0,-6.966088712E-2,1.039206505E1,8.508185744E-1
1.848186667E0,-8.403375745E-2,1.038727474E1,8.699824214E-1
1.850191250E0,-9.840662777E-2,1.039685631E1,8.651914597E-1
1.852195833E0,-5.049705505E-2,1.034894657E1,9.083100557E-1
1.854200417E0,-6.966088712E-2,1.037290192E1,8.987281322E-1
1.856205000E0,-5.049705505E-2,1.036331940E1,9.083100557E-1
1.858209583E0,-6.007897109E-2,1.033457375E1,8.987281322E-1
1.860214167E0,-8.882471919E-2,1.032978344E1,8.939371705E-1
1.862218750E0,-6.007897109E-2,1.030103683E1,9.083100557E-1
1.864223333E0,-2.175131440E-2,1.027708244E1,9.370558262E-1
1.866227917E0,-4.091514647E-2,1.024833679E1,9.322648644E-1
1.868232500E0,-6.966088712E-2,1.023396397E1,9.705924988E-1
1.870237083E0,-9.361566603E-2,1.021959114E1,9.610105753E-1
1.872241667E0,-9.840662777E-2,1.021000862E1,9.705924988E-1
1.874246250E0,-1.223614067E-1,1.020042706E1,9.658015370E-1
1.876250833E0,-1.415252388E-1,1.022438240E1,9.945473075E-1
1.878255417E0,-1.271523684E-1,1.022438240E1,1.013711214E0
1.880260000E0,-9.840662777E-2,1.020042706E1,9.993382692E-1
1.882264583E0,-1.223614067E-1,1.019563580E1,9.801744223E-1
1.884269167E0,-1.127794981E-1,1.019084549E1,9.610105753E-1
1.886273750E0,-1.367342919E-1,1.019084549E1,9.610105753E-1
1.888278333E0,-1.319433302E-1,1.015730858E1,9.370558262E-1
1.890282917E0,-1.319433302E-1,1.014293575E1,9.178919792E-1
1.892287500E0,-7.445184886E-2,1.009023476E1,9.274739027E-1
1.894292083E0,-6.966088712E-2,1.008065319E1,9.370558262E-1
1.896296719E0,-3.612418473E-2,1.008065319E1,9.418467879E-1
1.898301354E0,-1.216939837E-2,1.005190754E1,9.226829410E-1
1.900305990E0,2.203471959E-3,1.000399780E1,9.131010175E-1
1.902310625E0,3.094921261E-2,1.001357937E1,9.083100557E-1
1.904315260E0,3.094921261E-2,9.994416237E0,9.083100557E-1
1.906319896E0,6.927686930E-2,9.989624977E0,9.035190940E-1
1.908324531E0,5.969495699E-2,9.932133675E0,8.843553066E-1
1.910329167E0,1.028135717E-1,9.912969589E0,8.699824214E-1
1.912333802E0,9.802260995E-2,9.898596764E0,8.460276127E-1
1.914338437E0,1.363502741E-1,9.884223938E0,8.747733831E-1
1.916339687E0,1.794688851E-1,9.841105461E0,8.747733831E-1
1.918340937E0,2.130055875E-1,9.821941376E0,8.651914597E-1
1.920342604E0,2.177965343E-1,9.802777290E0,8.651914597E-1
1.922344792E0,2.417513281E-1,9.778822899E0,8.604004979E-1
1.924347552E0,2.896609008E-1,9.735704422E0,8.556095362E-1
1.926350937E0,2.992427945E-1,9.702167511E0,8.172819018E-1
1.928355000E0,2.896609008E-1,9.702167511E0,8.029090166E-1
1.930359740E0,2.992427945E-1,9.683003426E0,7.502084970E-1
1.932365104E0,3.136156797E-1,9.673421860E0,7.070899010E-1
1.934371042E0,2.992427945E-1,9.659049034E0,7.070899010E-1
1.936377448E0,3.088247180E-1,9.649467468E0,6.879260540E-1
1.938384271E0,3.231976032E-1,9.635094643E0,6.639712453E-1
1.940391406E0,3.567342758E-1,9.606348038E0,6.591803432E-1
1.942398698E0,3.758981228E-1,9.587184906E0,6.448074579E-1
1.944406042E0,3.854800463E-1,9.582393646E0,6.016888022E-1
1.946412865E0,3.998529315E-1,9.577602386E0,5.921069384E-1
1.948417448E0,3.998529315E-1,9.558439255E0,5.489882827E-1
1.950422031E0,3.854800463E-1,9.558439255E0,5.058696866E-1
1.952426615E0,4.429715276E-1,9.544066429E0,4.867058396E-1
1.954431198E0,4.621353745E-1,9.529693604E0,4.675420523E-1
1.956435781E0,4.956720471E-1,9.534483910E0,4.435872436E-1
1.958440365E0,5.004630089E-1,9.524902344E0,4.292143583E-1
1.960444948E0,5.196268559E-1,9.534483910E0,3.813048005E-1
1.962449531E0,5.339996815E-1,9.548856735E0,3.765138388E-1
1.964454115E0,5.531635284E-1,9.520111084E0,3.525590599E-1
1.966458698E0,5.771182775E-1,9.529693604E0,3.094404340E-1
1.968463281E0,6.202369332E-1,9.544066429E0,2.854856551E-1
1.970467865E0,6.058640480E-1,9.534483910E0,2.567399144E-1
1.972472448E0,6.489826441E-1,9.544066429E0,2.184122652E-1
1.974477031E0,6.681464911E-1,9.558439255E0,1.992484331E-1
1.976481615E0,6.681464911E-1,9.558439255E0,1.417569518E-1
1.978486198E0,6.681464911E-1,9.548856735E0,1.178021580E-1
1.980490781E0,6.873103380E-1,9.563229561E0,1.034292877E-1
1.982495365E0,7.064741254E-1,9.568020821E0,8.426547050E-2
1.984499948E0,7.495927811E-1,9.582393646E0,6.989260018E-2
1.986504531E0,7.735475302E-1,9.601557732E0,4.593780637E-2
1.988509115E0,7.783384919E-1,9.611139297E0,4.114684463E-2
1.990513698E0,7.831294537E-1,9.630303383E0,2.677397430E-2
1.992518281E0,7.591747046E-1,9.659049034E0,-1.971766353E-3
1.994522865E0,8.214571476E-1,9.683003426E0,2.819195390E-3
1.996527448E0,8.502028584E-1,9.721331596E0,-6.762728095E-3
1.998532031E0,8.645757437E-1,9.764450073E0,-6.762728095E-3
2.000536615E0,8.837395310E-1,9.802777290E0,2.819195390E-3
2.002541198E0,8.789486289E-1,9.865059853E0,2.819195390E-3
2.004545781E0,8.741576672E-1,9.932133675E0,-1.971766353E-3
2.006550365E0,9.029033780E-1,1.000399780E1,2.819195390E-3
2.008554948E0,9.412310719E-1,1.007586193E1,4.114684463E-2
2.010559531E0,9.316491485E-1,1.013335419E1,4.114684463E-2
2.012564115E0,9.508129358E-1,1.021000862E1,4.593780637E-2
2.014568698E0,9.747677445E-1,1.029145527E1,7.468354702E-2
2.016573281E0,9.987225533E-1,1.036331940E1,9.863834083E-2
2.018577865E0,1.013095379E0,1.043039322E1,1.130112112E-1
2.020582448E0,1.041841149E0,1.051183891E1,1.657117307E-1
2.022587031E0,1.041841149E0,1.058370399E1,1.465479136E-1
2.024591615E0,1.046632171E0,1.064598656E1,1.225931197E-1
2.026596198E0,1.061004996E0,1.070347786E1,1.752936542E-1
2.028600781E0,1.108914495E0,1.074659634E1,2.232032120E-1
2.030605365E0,1.142451286E0,1.076096916E1,2.711127996E-1
2.032609948E0,1.204733729E0,1.079450607E1,3.046495020E-1
2.034614531E0,1.267016172E0,1.078971481E1,3.286042809E-1
2.036619115E0,1.334089518E0,1.078013325E1,3.621409833E-1
2.038623698E0,1.386790037E0,1.078013325E1,4.244233966E-1
2.040628281E0,1.473027229E0,1.075138760E1,4.483782053E-1
2.042632865E0,1.496982098E0,1.072743225E1,5.346154571E-1
2.044637448E0,1.530518770E0,1.066994095E1,5.729430914E-1
2.046642031E0,1.578428388E0,1.062682247E1,6.256436110E-1
2.048646615E0,1.602383137E0,1.055974865E1,7.166718245E-1
2.050651198E0,1.631128907E0,1.051663017E1,7.789542079E-1
2.052655781E0,1.602383137E0,1.044476604E1,8.556095362E-1
2.054660365E0,1.597592115E0,1.037769222E1,9.274739027E-1
2.056664948E0,1.573637366E0,1.034894657E1,9.993382692E-1
2.058669531E0,1.564055443E0,1.028187370E1,1.066411734E0
2.060674115E0,1.568846464E0,1.026750088E1,1.157439828E0
2.062678698E0,1.554473519E0,1.022438240E1,1.224513292E0
2.064683281E0,1.564055443E0,1.021000862E1,1.291586637E0
2.066687865E0,1.592801213E0,1.017647266E1,1.353869081E0
2.068692448E0,1.635919809E0,1.015730858E1,1.430524468E0
2.070697031E0,1.631128907E0,1.014772701E1,1.488015890E0
2.072701615E0,1.650292635E0,1.014293575E1,1.516761661E0
2.074706198E0,1.669456482E0,1.013335419E1,1.555089355E0
2.076710781E0,1.683829427E0,1.012377167E1,1.602998853E0
2.078715365E0,1.712575078E0,1.011898041E1,1.612580776E0
2.080719948E0,1.736529946E0,1.010939884E1,1.641326547E0
2.082724531E0,1.746111870E0,1.010939884E1,1.684445143E0
2.084729115E0,1.750902772E0,1.008544445E1,1.684445143E0
2.086733698E0,1.750902772E0,1.008065319E1,1.670072317E0
2.088738281E0,1.861094832E0,1.005669880E1,1.713190913E0
2.090742865E0,1.913795352E0,1.003753471E1,1.722772837E0
2.092747448E0,1.913795352E0,1.001837063E1,1.732354760E0
2.094752031E0,1.976077795E0,9.970460892E0,1.727563739E0
2.096756615E0,2.038360357E0,9.936924934E0,1.770682454E0
2.098761198E0,2.062314987E0,9.903388023E0,1.746727586E0
2.100765781E0,2.129388332E0,9.865059853E0,1.751518607E0
2.102770365E0,2.162925005E0,9.821941376E0,1.732354760E0
2.104774948E0,2.119806528E0,9.783614159E0,1.694027066E0
2.106779531E0,2.201252699E0,9.721331596E0,1.674863219E0
2.108784115E0,2.273117065E0,9.687794685E0,1.679654241E0
2.110788698E0,2.321026802E0,9.659049034E0,1.717981935E0
2.112793281E0,2.416845798E0,9.601557732E0,1.708400011E0
2.114797865E0,2.450382471E0,9.558439255E0,1.703608990E0
2.116802448E0,2.436009645E0,9.539275169E0,1.650908470E0
2.118807031E0,2.469546318E0,9.486574173E0,1.641326547E0
2.120811615E0,2.570156336E0,9.453038216E0,1.641326547E0
2.122816198E0,2.675557613E0,9.405128479E0,1.674863219E0
2.124820781E0,2.733048916E0,9.376382828E0,1.631744623E0
2.126825365E0,2.761794806E0,9.347637177E0,1.593417048E0
2.128829948E0,2.814495325E0,9.333264351E0,1.598207951E0
2.130834531E0,2.862404823E0,9.290144920E0,1.574253201E0
2.132839115E0,2.963014841E0,9.290144920E0,1.593417048E0
2.134843698E0,3.039670229E0,9.261399269E0,1.531134605E0
2.136848281E0,3.101952791E0,9.242236137E0,1.540716410E0
2.138852865E0,3.188189983E0,9.208699226E0,1.564671278E0
2.140857448E0,3.197771788E0,9.199116707E0,1.516761661E0
2.142862031E0,3.192980766E0,9.184743881E0,1.483224988E0
2.144866615E0,3.087579727E0,9.213489532E0,1.358660102E0
2.146871250E0,3.077997923E0,9.194326401E0,1.339496255E0
2.148875885E0,3.111534595E0,9.189535141E0,1.315541506E0
2.150880521E0,3.255263329E0,9.175162315E0,1.353869081E0
2.152885156E0,3.212144613E0,9.165580750E0,1.305959582E0
2.154889792E0,3.216935635E0,9.146416664E0,1.243677139E0
2.156894427E0,3.307963848E0,9.146416664E0,1.253259063E0
2.158899062E0,3.202562809E0,9.151207924E0,1.186185598E0
2.160903698E0,3.212144613E0,9.165580750E0,1.123903155E0
2.162908333E0,3.307963848E0,9.146416664E0,1.109530330E0
2.164912969E0,3.360664368E0,9.151207924E0,1.104739308E0
2.166917604E0,3.336709499E0,9.165580750E0,1.018502116E0
2.168922240E0,3.298382044E0,9.146416664E0,9.514287114E-1
2.170926875E0,3.327127695E0,9.155998230E0,9.322648644E-1
2.172931510E0,3.298382044E0,9.165580750E0,8.651914597E-1
2.174936146E0,3.341500521E0,9.175162315E0,8.364456892E-1
2.176940781E0,3.432528734E0,9.189535141E0,8.268638253E-1
2.178945417E0,3.456483603E0,9.175162315E0,7.693722844E-1
2.180950052E0,3.437319756E0,9.189535141E0,7.502084970E-1
2.182954687E0,3.398992062E0,9.203907967E0,6.783441305E-1
2.184959323E0,3.346291542E0,9.218280792E0,6.352255344E-1
2.186963958E0,3.322336674E0,9.237444878E0,5.873159766E-1
2.188968594E0,3.317545652E0,9.256608963E0,5.777340531E-1
2.190973229E0,3.231308460E0,9.275772095E0,5.489882827E-1
2.192977865E0,3.135489464E0,9.323681831E0,5.058696866E-1
2.194982500E0,2.991760731E0,9.323681831E0,4.819149077E-1
2.196987135E0,2.838449955E0,9.338054657E0,4.340053201E-1
2.198991771E0,2.632438898E0,9.362010002E0,4.004686475E-1
2.200996406E0,2.503082991E0,9.366800308E0,3.860957623E-1
2.203001042E0,2.388100147E0,9.362010002E0,3.956776857E-1
2.205005677E0,2.321026802E0,9.362010002E0,4.340053201E-1
2.207010312E0,2.234789371E0,9.352427483E0,4.435872436E-1
2.209014948E0,2.206043720E0,9.342845917E0,4.962877631E-1
2.211019583E0,2.167716026E0,9.333264351E0,5.058696866E-1
2.213024167E0,2.105433702E0,9.328473091E0,5.298244953E-1
2.215028750E0,2.086269855E0,9.299727440E0,5.489882827E-1
2.217033333E0,2.057523966E0,9.270981789E0,5.873159766E-1
2.219037917E0,2.038360357E0,9.314100266E0,6.064797640E-1
2.221042500E0,1.985659719E0,9.285354614E0,6.160616875E-1
2.223047083E0,1.956913948E0,9.309309006E0,6.495984197E-1
2.225051667E0,1.918586254E0,9.294936180E0,6.543893814E-1
2.227056250E0,1.894631505E0,9.304517746E0,6.735531688E-1
2.229060833E0,1.865885735E0,9.318890572E0,7.118808627E-1
2.231065417E0,1.817976236E0,9.333264351E0,7.118808627E-1
2.233070000E0,1.808394313E0,9.352427483E0,7.214627862E-1
2.235074583E0,1.741320848E0,9.376382828E0,7.454175353E-1
2.237079167E0,1.736529946E0,9.429082870E0,7.358356118E-1
2.239083750E0,1.712575078E0,9.438665390E0,7.358356118E-1
2.241088333E0,1.659874558E0,9.467411041E0,7.454175353E-1
2.243092917E0,1.635919809E0,9.500946999E0,7.597904205E-1
2.245097500E0,1.611965060E0,9.563229561E0,7.693722844E-1
2.247102083E0,1.573637366E0,9.577602386E0,7.741632462E-1
2.249106667E0,1.549682617E0,9.611139297E0,7.406265736E-1
2.251111250E0,1.506564021E0,9.649467468E0,7.597904205E-1
2.253115833E0,1.492191076E0,9.687794685E0,7.406265736E-1
2.255120417E0,1.473027229E0,9.721331596E0,7.406265736E-1
2.257125000E0,1.458654404E0,9.754868507E0,7.549994588E-1
2.259129583E0,1.453863502E0,9.778822899E0,7.310446501E-1
2.261134167E0,1.410744786E0,9.821941376E0,7.358356118E-1
2.263138750E0,1.396371961E0,9.831523895E0,7.502084970E-1
2.265143333E0,1.381999135E0,9.845896721E0,7.310446501E-1
2.267147917E0,1.334089518E0,9.869851112E0,7.454175353E-1
2.269152500E0,1.319716692E0,9.898596764E0,7.406265736E-1
2.271157083E0,1.290970922E0,9.912969589E0,7.693722844E-1
2.273161667E0,1.276598096E0,9.922552109E0,7.741632462E-1
2.275166250E0,1.271807075E0,9.908178329E0,7.837451696E-1
2.277170833E0,1.243061304E0,9.927342415E0,8.029090166E-1
2.279175417E0,1.228688478E0,9.927342415E0,8.124909401E-1
2.281180000E0,1.204733729E0,9.917760849E0,8.460276127E-1
2.283184583E0,1.195151806E0,9.912969589E0,8.651914597E-1
2.285189167E0,1.171196938E0,9.898596764E0,8.795643449E-1
2.287193750E0,1.152033210E0,9.893805504E0,9.035190940E-1
2.289198333E0,1.132869363E0,9.908178329E0,9.274739027E-1
2.291202917E0,1.113705516E0,9.884223938E0,9.322648644E-1
2.293207500E0,1.104123592E0,9.860269547E0,9.610105753E-1
2.295212083E0,1.061004996E0,9.845896721E0,9.658015370E-1
2.297216667E0,1.051423073E0,9.831523895E0,9.849653840E-1
2.299221250E0,1.037050247E0,9.821941376E0,1.013711214E0
2.301225833E0,1.013095379E0,9.812359810E0,1.047247887E0
2.303230417E0,1.003513575E0,9.788404465E0,1.056829810E0
2.305235000E0,9.987225533E-1,9.783614159E0,1.071202636E0
2.307239583E0,1.008304477E0,9.769241333E0,1.109530330E0
2.309244167E0,9.987225533E-1,9.740495682E0,1.143067002E0
2.311248750E0,9.843496680E-1,9.730913162E0,1.147857904E0
2.313253333E0,9.891406298E-1,9.716540337E0,1.157439828E0
2.315257917E0,9.891406298E-1,9.711749077E0,1.205349445E0
2.317262500E0,9.651858211E-1,9.702167511E0,1.210140347E0
2.319267083E0,9.699767828E-1,9.678213120E0,1.214931369E0
2.321271667E0,9.603948593E-1,9.673421860E0,1.248468041E0
2.323276250E0,9.651858211E-1,9.668630600E0,1.258049965E0
2.325280833E0,9.460219741E-1,9.673421860E0,1.262840986E0
2.327285417E0,9.412310719E-1,9.663840294E0,1.296377659E0
2.329290000E0,9.316491485E-1,9.663840294E0,1.310750484E0
2.331294583E0,9.316491485E-1,9.649467468E0,1.344287276E0
2.333299167E0,9.268581867E-1,9.625512123E0,1.334705353E0
2.335303750E0,9.220672250E-1,9.625512123E0,1.358660102E0
2.337308333E0,9.172762632E-1,9.601557732E0,1.368242025E0
2.339312917E0,9.172762632E-1,9.620721817E0,1.392196774E0
2.341317500E0,9.124853015E-1,9.611139297E0,1.411360621E0
2.343322083E0,9.220672250E-1,9.587184906E0,1.425733447E0
2.345326667E0,8.981124163E-1,9.572812080E0,1.440106392E0
2.347331250E0,9.220672250E-1,9.572812080E0,1.444897294E0
2.349335833E0,9.124853015E-1,9.568020821E0,1.449688315E0
2.351340417E0,9.268581867E-1,9.548856735E0,1.478433967E0
2.353345000E0,9.220672250E-1,9.548856735E0,1.488015890E0
2.355349583E0,9.268581867E-1,9.534483910E0,1.507179737E0
2.357354167E0,9.220672250E-1,9.548856735E0,1.511970758E0
2.359358750E0,9.268581867E-1,9.544066429E0,1.507179737E0
2.361363333E0,9.460219741E-1,9.553647995E0,1.535925508E0
2.363367917E0,9.508129358E-1,9.558439255E0,1.535925508E0
2.365372500E0,9.747677445E-1,9.548856735E0,1.540716410E0
2.367377083E0,9.939315915E-1,9.553647995E0,1.550298333E0
2.369381667E0,1.003513575E0,9.563229561E0,1.540716410E0
2.371386250E0,1.003513575E0,9.572812080E0,1.545507431E0
2.373390833E0,1.022677302E0,9.582393646E0,1.545507431E0
2.375395417E0,1.037050247E0,9.606348038E0,1.555089355E0
2.377400000E0,1.061004996E0,9.591975212E0,1.559880257E0
2.379404583E0,1.070586920E0,9.606348038E0,1.550298333E0
2.381409167E0,1.089750767E0,9.615930557E0,1.579044104E0
2.383413750E0,1.094541669E0,9.625512123E0,1.569462180E0
2.385418333E0,1.108914495E0,9.625512123E0,1.564671278E0
2.387422917E0,1.108914495E0,9.615930557E0,1.574253201E0
2.389427500E0,1.147242188E0,9.639884949E0,1.569462180E0
2.391432083E0,1.156824112E0,9.644676208E0,1.569462180E0
2.393436719E0,1.166406035E0,9.625512123E0,1.593417048E0
2.395441354E0,1.180778861E0,9.649467468E0,1.602998853E0
2.397445990E0,1.199942708E0,9.654257774E0,1.598207951E0
2.399450625E0,1.233479381E0,9.659049034E0,1.593417048E0
2.401455260E0,1.228688478E0,9.659049034E0,1.588626027E0
2.403459896E0,1.238270402E0,9.654257774E0,1.588626027E0
2.405464531E0,1.262225151E0,9.668630600E0,1.583835125E0
2.407469167E0,1.281388998E0,9.654257774E0,1.569462180E0
2.409473802E0,1.305343747E0,9.663840294E0,1.598207951E0
2.411478437E0,1.290970922E0,9.654257774E0,1.564671278E0
2.413483073E0,1.319716692E0,9.663840294E0,1.579044104E0
2.415487708E0,1.314925671E0,9.649467468E0,1.583835125E0
2.417492344E0,1.314925671E0,9.663840294E0,1.579044104E0
2.419496979E0,1.343671441E0,9.630303383E0,1.569462180E0
2.421501615E0,1.362835288E0,9.639884949E0,1.569462180E0
2.423506250E0,1.367626190E0,9.615930557E0,1.559880257E0
2.425510885E0,1.377208114E0,9.611139297E0,1.574253201E0
2.427515521E0,1.401162982E0,9.606348038E0,1.559880257E0
2.429520156E0,1.405953884E0,9.611139297E0,1.564671278E0
2.431524792E0,1.420326710E0,9.601557732E0,1.545507431E0
2.433529427E0,1.434699655E0,9.591975212E0,1.555089355E0
2.435534062E0,1.453863502E0,9.601557732E0,1.540716410E0
2.437538698E0,1.458654404E0,9.591975212E0,1.545507431E0
2.439543333E0,1.482609153E0,9.587184906E0,1.555089355E0
2.441547969E0,1.496982098E0,9.591975212E0,1.521552682E0
2.443552604E0,1.487400174E0,9.596766472E0,1.507179737E0
2.445557240E0,1.501773000E0,9.601557732E0,1.516761661E0
2.447561875E0,1.525727868E0,9.591975212E0,1.511970758E0
2.449566510E0,1.506564021E0,9.601557732E0,1.468852162E0
2.451571146E0,1.530518770E0,9.587184906E0,1.483224988E0
2.453575781E0,1.544891596E0,9.577602386E0,1.464061141E0
2.455580417E0,1.544891596E0,9.591975212E0,1.449688315E0
2.457585052E0,1.559264541E0,9.596766472E0,1.420942545E0
2.459589687E0,1.554473519E0,9.587184906E0,1.416151524E0
2.461594271E0,1.568846464E0,9.596766472E0,1.406569719E0
2.463598854E0,1.568846464E0,9.591975212E0,1.373032928E0
2.465603437E0,1.559264541E0,9.591975212E0,1.382614851E0
2.467608021E0,1.578428388E0,9.577602386E0,1.368242025E0
2.469612604E0,1.578428388E0,9.568020821E0,1.358660102E0
2.471617187E0,1.588010311E0,9.572812080E0,1.344287276E0
2.473621771E0,1.573637366E0,9.563229561E0,1.310750484E0
2.475626354E0,1.583219290E0,9.568020821E0,1.301168561E0
2.477630937E0,1.602383137E0,9.558439255E0,1.291586637E0
2.479635521E0,1.588010311E0,9.572812080E0,1.286795735E0
2.481640104E0,1.583219290E0,9.548856735E0,1.262840986E0
2.483644687E0,1.607174039E0,9.558439255E0,1.272422910E0
2.485649271E0,1.616755962E0,9.548856735E0,1.243677139E0
2.487653854E0,1.621546984E0,9.548856735E0,1.253259063E0
2.489658437E0,1.611965060E0,9.539275169E0,1.224513292E0
2.491663021E0,1.616755962E0,9.534483910E0,1.238886118E0
2.493667604E0,1.626337886E0,9.524902344E0,1.219722271E0
2.495672187E0,1.621546984E0,9.500946999E0,1.224513292E0
2.497676771E0,1.631128907E0,9.496156693E0,1.210140347E0
2.499681354E0,1.626337886E0,9.476992607E0,1.219722271E0
2.501685937E0,1.631128907E0,9.453038216E0,1.214931369E0
2.503690521E0,1.645501733E0,9.438665390E0,1.214931369E0
2.505695104E0,1.631128907E0,9.443455696E0,1.219722271E0
2.507699687E0,1.631128907E0,9.409918785E0,1.234095216E0
2.509704271E0,1.645501733E0,9.385964394E0,1.214931369E0
2.511708854E0,1.664665580E0,9.371591568E0,1.219722271E0
2.513713437E0,1.650292635E0,9.342845917E0,1.224513292E0
2.515718021E0,1.650292635E0,9.338054657E0,1.214931369E0
2.517722604E0,1.650292635E0,9.309309006E0,1.234095216E0
2.519727187E0,1.669456482E0,9.299727440E0,1.234095216E0
2.521731771E0,1.688620329E0,9.299727440E0,1.234095216E0
2.523736354E0,1.688620329E0,9.299727440E0,1.234095216E0
2.525740937E0,1.688620329E0,9.290144920E0,1.238886118E0
2.527745521E0,1.693411350E0,9.275772095E0,1.253259063E0
2.529750104E0,1.717366099E0,9.275772095E0,1.248468041E0
2.531754687E0,1.717366099E0,9.294936180E0,1.258049965E0
2.533759271E0,1.707784176E0,9.275772095E0,1.277213812E0
2.535763854E0,1.707784176E0,9.290144920E0,1.253259063E0
2.537768437E0,1.736529946E0,9.299727440E0,1.262840986E0
2.539773021E0,1.741320848E0,9.318890572E0,1.262840986E0
2.541777604E0,1.722157001E0,9.294936180E0,1.272422910E0
2.543782187E0,1.731738925E0,9.299727440E0,1.253259063E0
2.545786771E0,1.731738925E0,9.309309006E0,1.234095216E0
2.547791354E0,1.741320848E0,9.309309006E0,1.262840986E0
2.549795937E0,1.707784176E0,9.304517746E0,1.253259063E0
2.551800521E0,1.726948023E0,9.309309006E0,1.238886118E0
2.553805104E0,1.707784176E0,9.309309006E0,1.262840986E0
2.555809687E0,1.712575078E0,9.299727440E0,1.258049965E0
2.557814271E0,1.702993274E0,9.294936180E0,1.262840986E0
2.559818854E0,1.698202252E0,9.304517746E0,1.262840986E0
2.561823437E0,1.698202252E0,9.304517746E0,1.243677139E0
2.563828021E0,1.693411350E0,9.294936180E0,1.238886118E0
2.565832604E0,1.683829427E0,9.318890572E0,1.238886118E0
2.567837187E0,1.679038405E0,9.323681831E0,1.258049965E0
2.569841771E0,1.683829427E0,9.304517746E0,1.258049965E0
2.571846354E0,1.664665580E0,9.323681831E0,1.238886118E0
2.573850937E0,1.626337886E0,9.323681831E0,1.253259063E0
2.575855521E0,1.631128907E0,9.333264351E0,1.253259063E0
2.577860104E0,1.607174039E0,9.338054657E0,1.262840986E0
2.579864687E0,1.597592115E0,9.342845917E0,1.248468041E0
2.581869271E0,1.578428388E0,9.357218742E0,1.243677139E0
2.583873854E0,1.564055443E0,9.352427483E0,1.258049965E0
2.585878437E0,1.564055443E0,9.376382828E0,1.262840986E0
2.587883021E0,1.549682617E0,9.385964394E0,1.267631888E0
2.589887604E0,1.520936847E0,9.385964394E0,1.277213812E0
2.591892187E0,1.525727868E0,9.376382828E0,1.272422910E0
2.593896771E0,1.501773000E0,9.395545959E0,1.272422910E0
2.595901354E0,1.501773000E0,9.400337219E0,1.291586637E0
2.597905937E0,1.477818251E0,9.395545959E0,1.305959582E0
2.599910521E0,1.444281578E0,9.409918785E0,1.315541506E0
2.601915104E0,1.468236327E0,9.405128479E0,1.305959582E0
2.603919687E0,1.439490557E0,9.395545959E0,1.325123429E0
2.605924271E0,1.463445425E0,9.429082870E0,1.344287276E0
2.607928854E0,1.434699655E0,9.433874130E0,1.373032928E0
2.609933437E0,1.439490557E0,9.433874130E0,1.363451004E0
2.611938021E0,1.434699655E0,9.429082870E0,1.363451004E0
2.613942604E0,1.420326710E0,9.457828522E0,1.382614851E0
2.615947187E0,1.425117731E0,9.476992607E0,1.392196774E0
2.617951771E0,1.420326710E0,9.500946999E0,1.411360621E0
2.619956354E0,1.415535808E0,9.505738258E0,1.430524468E0
2.621960937E0,1.391581059E0,9.520111084E0,1.440106392E0
2.623965521E0,1.405953884E0,9.529693604E0,1.478433967E0
2.625970104E0,1.401162982E0,9.544066429E0,1.488015890E0
2.627974740E0,1.381999135E0,9.553647995E0,1.492806911E0
2.629979375E0,1.377208114E0,9.582393646E0,1.526343584E0
2.631984010E0,1.372417212E0,9.563229561E0,1.545507431E0
2.633988646E0,1.367626190E0,9.577602386E0,1.574253201E0
2.635993281E0,1.367626190E0,9.577602386E0,1.579044104E0
2.637997917E0,1.367626190E0,9.582393646E0,1.602998853E0
2.640002552E0,1.324507594E0,9.611139297E0,1.626953721E0
2.642007187E0,1.324507594E0,9.620721817E0,1.646117568E0
2.644011823E0,1.324507594E0,9.630303383E0,1.679654241E0
2.646016458E0,1.300552845E0,9.620721817E0,1.713190913E0
2.648021094E0,1.295761824E0,9.635094643E0,1.732354760E0
2.650025729E0,1.276598096E0,9.649467468E0,1.770682454E0
2.652030365E0,1.247852325E0,9.678213120E0,1.785055280E0
2.654035000E0,1.228688478E0,9.663840294E0,1.813801050E0
2.656039635E0,1.243061304E0,9.706958771E0,1.837755799E0
2.658044271E0,1.204733729E0,9.706958771E0,1.866501570E0
2.660048906E0,1.209524632E0,9.750077248E0,1.890456319E0
2.662053542E0,1.190360785E0,9.764450073E0,1.923992991E0
2.664058177E0,1.166406035E0,9.812359810E0,1.938365936E0
2.666062812E0,1.156824112E0,9.826732635E0,1.943156838E0
2.668067448E0,1.152033210E0,9.865059853E0,1.952738762E0
2.670072083E0,1.118496418E0,9.884223938E0,1.986275434E0
2.672076719E0,1.113705516E0,9.922552109E0,1.995857358E0
2.674081354E0,1.099332571E0,9.965670586E0,2.005439281E0
2.676085990E0,1.070586920E0,1.000878906E1,2.005439281E0
2.678090625E0,1.070586920E0,1.004711628E1,2.010230303E0
2.680095260E0,1.056213975E0,1.005669880E1,2.019812107E0
2.682099896E0,1.046632171E0,1.009023476E1,2.024603128E0
2.684104531E0,1.041841149E0,1.010939884E1,2.029393911E0
2.686109167E0,1.032259226E0,1.013335419E1,2.043766975E0
2.688113802E0,1.017886400E0,1.018126297E1,2.067721605E0
2.690118437E0,9.939315915E-1,1.017647266E1,2.062930822E0
2.692123073E0,9.795587063E-1,1.020521832E1,2.077303648E0
2.694127708E0,9.795587063E-1,1.022917271E1,2.086885452E0
2.696132344E0,9.795587063E-1,1.026270962E1,2.096467495E0
2.698136927E0,9.699767828E-1,1.026270962E1,2.096467495E0
2.700141510E0,9.651858211E-1,1.025312805E1,2.091676474E0
2.702146094E0,9.412310719E-1,1.029145527E1,2.106049299E0
2.704150677E0,9.316491485E-1,1.028187370E1,2.115631342E0
2.706155260E0,9.029033780E-1,1.028187370E1,2.153958797E0
2.708159844E0,9.172762632E-1,1.028187370E1,2.153958797E0
2.710164427E0,8.933214545E-1,1.029624653E1,2.158749819E0
2.712169010E0,8.789486289E-1,1.029624653E1,2.192286491E0
2.714173594E0,8.597847819E-1,1.027229118E1,2.206659555E0
2.716178177E0,8.549938202E-1,1.026750088E1,2.216241360E0
2.718182760E0,8.358299732E-1,1.025791836E1,2.225823164E0
2.720187344E0,8.502028584E-1,1.023396397E1,2.264151096E0
2.722191927E0,8.310390115E-1,1.021000862E1,2.273732901E0
2.724196510E0,8.118752241E-1,1.021000862E1,2.312060595E0
2.726201094E0,7.879204154E-1,1.018605423E1,2.340806246E0
2.728205677E0,7.831294537E-1,1.015730858E1,2.350388288E0
2.730210260E0,7.735475302E-1,1.015730858E1,2.369552135E0
2.732214844E0,7.448018193E-1,1.013335419E1,2.398297787E0
2.734219427E0,7.495927811E-1,1.011898041E1,2.412670612E0
2.736224010E0,7.208470106E-1,1.009981728E1,2.417461634E0
2.738228594E0,7.064741254E-1,1.008065319E1,2.455789328E0
2.740233177E0,6.825193763E-1,1.007586193E1,2.460580111E0
2.742237760E0,6.968922615E-1,1.004711628E1,2.470162153E0
2.744242344E0,6.825193763E-1,1.002795315E1,2.494117022E0
2.746246927E0,6.729374528E-1,1.000878906E1,2.489326000E0
2.748251510E0,6.729374528E-1,9.980043411E0,2.518071651E0
2.750256094E0,6.585645676E-1,9.946506500E0,2.498907804E0
2.752260677E0,6.681464911E-1,9.927342415E0,2.522862673E0
2.754265260E0,6.777284145E-1,9.893805504E0,2.527653694E0
2.756269844E0,6.585645676E-1,9.889015198E0,2.518071651E0
2.758274427E0,6.537736058E-1,9.860269547E0,2.518071651E0
2.760279010E0,6.394007206E-1,9.821941376E0,2.556399345E0
2.762283594E0,6.441916823E-1,9.793195724E0,2.542026520E0
2.764288177E0,6.394007206E-1,9.778822899E0,2.561190367E0
2.766292760E0,6.394007206E-1,9.754868507E0,2.575563192E0
2.768297344E0,6.106550097E-1,9.735704422E0,2.589936018E0
2.770301927E0,6.106550097E-1,9.716540337E0,2.585144997E0
2.772306510E0,6.489826441E-1,9.706958771E0,2.585144997E0
2.774311094E0,6.250278950E-1,9.683003426E0,2.589936018E0
2.776315677E0,6.010730863E-1,9.697376251E0,2.589936018E0
2.778320260E0,6.106550097E-1,9.668630600E0,2.594727039E0
2.780324844E0,6.058640480E-1,9.668630600E0,2.599518061E0
2.782329427E0,6.106550097E-1,9.654257774E0,2.604308844E0
2.784334010E0,6.298188567E-1,9.659049034E0,2.609099865E0
2.786338594E0,6.202369332E-1,9.649467468E0,2.618681908E0
2.788343177E0,6.250278950E-1,9.659049034E0,2.604308844E0
2.790347760E0,6.346098185E-1,9.659049034E0,2.604308844E0
2.792352344E0,6.202369332E-1,9.663840294E0,2.585144997E0
2.794356927E0,6.298188567E-1,9.668630600E0,2.594727039E0
2.796361510E0,6.346098185E-1,9.654257774E0,2.613890886E0
2.798366094E0,6.010730863E-1,9.649467468E0,2.599518061E0
2.800370677E0,6.202369332E-1,9.639884949E0,2.609099865E0
2.802375260E0,6.106550097E-1,9.635094643E0,2.575563192E0
2.804379844E0,6.202369332E-1,9.630303383E0,2.585144997E0
2.806384427E0,6.346098185E-1,9.615930557E0,2.589936018E0
2.808389010E0,6.058640480E-1,9.591975212E0,2.594727039E0
2.810393594E0,6.106550097E-1,9.577602386E0,2.580354214E0
2.812398177E0,5.914911628E-1,9.558439255E0,2.594727039E0
2.814402760E0,5.819092393E-1,9.539275169E0,2.589936018E0
2.816407344E0,5.819092393E-1,9.524902344E0,2.589936018E0
2.818411927E0,5.435816050E-1,9.496156693E0,2.589936018E0
2.820416510E0,5.579544902E-1,9.467411041E0,2.589936018E0
2.822421094E0,5.579544902E-1,9.433874130E0,2.594727039E0
2.824425677E0,5.435816050E-1,9.405128479E0,2.594727039E0
2.826430260E0,5.483725667E-1,9.371591568E0,2.599518061E0
2.828434844E0,5.483725667E-1,9.362010002E0,2.604308844E0
2.830439427E0,5.339996815E-1,9.338054657E0,2.609099865E0
2.832444010E0,5.148358941E-1,9.328473091E0,2.628263712E0
2.834448594E0,5.052539706E-1,9.294936180E0,2.623472691E0
2.836453177E0,5.387906432E-1,9.285354614E0,2.652218580E0
2.838457760E0,5.148358941E-1,9.294936180E0,2.666591406E0
2.840462344E0,5.387906432E-1,9.266190529E0,2.657009363E0
2.842466927E0,5.387906432E-1,9.256608963E0,2.647427559E0
2.844471510E0,5.292087793E-1,9.270981789E0,2.680964231E0
2.846476094E0,5.292087793E-1,9.275772095E0,2.690546274E0
2.848480677E0,5.052539706E-1,9.270981789E0,2.661800385E0
2.850485260E0,5.148358941E-1,9.256608963E0,2.680964231E0
2.852489844E0,5.339996815E-1,9.266190529E0,2.685755253E0
2.854494479E0,5.339996815E-1,9.270981789E0,2.690546274E0
2.856499115E0,5.196268559E-1,9.266190529E0,2.661800385E0
2.858503750E0,5.387906432E-1,9.266190529E0,2.695337057E0
2.860508385E0,5.483725667E-1,9.280563354E0,2.680964231E0
2.862513021E0,5.579544902E-1,9.285354614E0,2.690546274E0
2.864517656E0,5.627454519E-1,9.266190529E0,2.680964231E0
2.866522292E0,5.723273754E-1,9.270981789E0,2.676173210E0
2.868526927E0,5.819092393E-1,9.294936180E0,2.676173210E0
2.870531562E0,5.867002010E-1,9.294936180E0,2.657009363E0
2.872536198E0,6.106550097E-1,9.304517746E0,2.666591406E0
2.874540833E0,6.489826441E-1,9.328473091E0,2.666591406E0
2.876545469E0,6.298188567E-1,9.333264351E0,2.647427559E0
2.878550104E0,6.633555293E-1,9.376382828E0,2.637845755E0
2.880554740E0,6.729374528E-1,9.395545959E0,2.628263712E0
2.882559375E0,6.968922615E-1,9.414710045E0,2.609099865E0
2.884564010E0,6.873103380E-1,9.429082870E0,2.604308844E0
2.886568646E0,7.160560489E-1,9.476992607E0,2.580354214E0
2.888573281E0,7.495927811E-1,9.500946999E0,2.575563192E0
2.890577917E0,7.448018193E-1,9.510529518E0,2.570772171E0
2.892582552E0,7.495927811E-1,9.544066429E0,2.527653694E0
2.894587187E0,7.639656067E-1,9.563229561E0,2.513280869E0
2.896591823E0,7.927113771E-1,9.596766472E0,2.479743958E0
2.898596458E0,7.831294537E-1,9.611139297E0,2.479743958E0
2.900601094E0,8.022933006E-1,9.630303383E0,2.455789328E0
2.902605729E0,8.262480497E-1,9.639884949E0,2.436625481E0
2.904610365E0,8.406209350E-1,9.644676208E0,2.431834459E0
2.906615000E0,8.358299732E-1,9.639884949E0,2.412670612E0
2.908619635E0,8.693667054E-1,9.635094643E0,2.422252655E0
2.910624271E0,8.645757437E-1,9.639884949E0,2.403088808E0
2.912628906E0,8.837395310E-1,9.635094643E0,2.383924961E0
2.914633542E0,9.029033780E-1,9.625512123E0,2.398297787E0
2.916638177E0,9.172762632E-1,9.620721817E0,2.383924961E0
2.918642812E0,9.220672250E-1,9.639884949E0,2.398297787E0
2.920647448E0,9.412310719E-1,9.591975212E0,2.407879591E0
2.922652083E0,9.460219741E-1,9.577602386E0,2.393506765E0
2.924656719E0,9.747677445E-1,9.548856735E0,2.393506765E0
2.926661302E0,9.939315915E-1,9.544066429E0,2.427043438E0
2.928665885E0,9.747677445E-1,9.529693604E0,2.446207285E0
2.930670469E0,1.003513575E0,9.500946999E0,2.446207285E0
2.932675052E0,1.017886400E0,9.486574173E0,2.446207285E0
2.934679635E0,1.041841149E0,9.457828522E0,2.474953175E0
2.936684219E0,1.051423073E0,9.433874130E0,2.508489847E0
2.938688802E0,1.061004996E0,9.414710045E0,2.508489847E0
2.940693385E0,1.080168843E0,9.400337219E0,2.513280869E0
2.942697969E0,1.104123592E0,9.362010002E0,2.542026520E0
2.944702552E0,1.113705516E0,9.328473091E0,2.551608324E0
2.946707135E0,1.147242188E0,9.328473091E0,2.556399345E0
2.948711719E0,1.156824112E0,9.323681831E0,2.575563192E0
2.950716302E0,1.190360785E0,9.304517746E0,2.585144997E0
2.952720885E0,1.195151806E0,9.270981789E0,2.594727039E0
2.954725469E0,1.233479381E0,9.275772095E0,2.604308844E0
2.956730052E0,1.267016172E0,9.280563354E0,2.633054733E0
2.958734635E0,1.305343747E0,9.270981789E0,2.618681908E0
2.960739219E0,1.314925671E0,9.275772095E0,2.637845755E0
2.962743802E0,1.348462343E0,9.256608963E0,2.647427559E0
2.964748385E0,1.362835288E0,9.247026443E0,2.637845755E0
2.966752969E0,1.401162982E0,9.242236137E0,2.633054733E0
2.968757552E0,1.401162982E0,9.227863312E0,2.633054733E0
2.970762135E0,1.458654404E0,9.223072052E0,2.633054733E0
2.972766719E0,1.463445425E0,9.203907967E0,2.637845755E0
2.974771302E0,1.477818251E0,9.189535141E0,2.637845755E0
2.976775885E0,1.520936847E0,9.160789490E0,2.633054733E0
2.978780469E0,1.544891596E0,9.175162315E0,2.652218580E0
2.980785052E0,1.564055443E0,9.179953575E0,2.633054733E0
2.982789635E0,1.588010311E0,9.136835098E0,2.657009363E0
2.984794219E0,1.597592115E0,9.132043839E0,2.647427559E0
2.986798802E0,1.616755962E0,9.112879753E0,2.642636538E0
2.988803385E0,1.635919809E0,9.117671013E0,2.647427559E0
2.990807969E0,1.650292635E0,9.103298187E0,2.642636538E0
2.992812552E0,1.655083656E0,9.108088493E0,2.637845755E0
2.994817135E0,1.683829427E0,9.088925362E0,2.637845755E0
2.996821719E0,1.650292635E0,9.098506927E0,2.628263712E0
2.998826302E0,1.674247503E0,9.117671013E0,2.618681908E0
3.000830885E0,1.679038405E0,9.117671013E0,2.623472691E0
3.002835469E0,1.679038405E0,9.117671013E0,2.599518061E0
3.004840052E0,1.693411350E0,9.136835098E0,2.604308844E0
3.006844635E0,1.679038405E0,9.146416664E0,2.580354214E0
3.008849219E0,1.655083656E0,9.136835098E0,2.561190367E0
3.010853802E0,1.674247503E0,9.160789490E0,2.561190367E0
3.012858385E0,1.655083656E0,9.194326401E0,2.527653694E0
3.014862969E0,1.635919809E0,9.203907967E0,2.527653694E0
3.016867552E0,1.645501733E0,9.199116707E0,2.527653694E0
3.018872135E0,1.635919809E0,9.227863312E0,2.503698826E0
3.020876719E0,1.626337886E0,9.251817703E0,2.479743958E0
3.022881302E0,1.621546984E0,9.261399269E0,2.484534979E0
3.024885885E0,1.611965060E0,9.280563354E0,2.460580111E0
3.026890469E0,1.607174039E0,9.285354614E0,2.465371132E0
3.028895052E0,1.635919809E0,9.309309006E0,2.455789328E0
3.030899635E0,1.626337886E0,9.294936180E0,2.450998306E0
3.032904219E0,1.631128907E0,9.352427483E0,2.460580111E0
3.034908802E0,1.626337886E0,9.357218742E0,2.441416502E0
3.036913385E0,1.626337886E0,9.381173134E0,2.431834459E0
3.038917969E0,1.631128907E0,9.405128479E0,2.417461634E0
3.040922552E0,1.635919809E0,9.453038216E0,2.398297787E0
3.042927135E0,1.635919809E0,9.467411041E0,2.379133940E0
3.044931719E0,1.645501733E0,9.500946999E0,2.331224442E0
3.046936302E0,1.664665580E0,9.534483910E0,2.307269573E0
3.048940885E0,1.640710831E0,9.558439255E0,2.278523922E0
3.050945469E0,1.645501733E0,9.601557732E0,2.221032381E0
3.052950052E0,1.645501733E0,9.620721817E0,2.211450338E0
3.054954635E0,1.635919809E0,9.654257774E0,2.168331861E0
3.056959219E0,1.645501733E0,9.687794685E0,2.130004168E0
3.058963802E0,1.621546984E0,9.697376251E0,2.096467495E0
3.060968385E0,1.616755962E0,9.711749077E0,2.077303648E0
3.062972969E0,1.645501733E0,9.730913162E0,2.029393911E0
3.064977552E0,1.674247503E0,9.750077248E0,1.995857358E0
3.066982135E0,1.683829427E0,9.759658813E0,1.962320685E0
3.068986719E0,1.683829427E0,9.788404465E0,1.938365936E0
3.070991302E0,1.679038405E0,9.783614159E0,1.890456319E0
3.072995885E0,1.683829427E0,9.793195724E0,1.871292472E0
3.075000469E0,1.698202252E0,9.817150116E0,1.828173876E0
3.077005104E0,1.679038405E0,9.841105461E0,1.804219127E0
3.079009740E0,1.679038405E0,9.869851112E0,1.770682454E0
3.081014375E0,1.679038405E0,9.898596764E0,1.746727586E0
3.083019010E0,1.659874558E0,9.941715240E0,1.722772837E0
3.085023646E0,1.679038405E0,9.994416237E0,1.694027066E0
3.087028281E0,1.664665580E0,1.005669880E1,1.650908470E0
3.089032917E0,1.664665580E0,1.009023476E1,1.598207951E0
3.091037552E0,1.683829427E0,1.016689014E1,1.569462180E0
3.093042187E0,1.702993274E0,1.023875523E1,1.545507431E0
3.095046823E0,1.702993274E0,1.026750088E1,1.478433967E0
3.097051458E0,1.702993274E0,1.033936501E1,1.430524468E0
3.099056094E0,1.717366099E0,1.039206505E1,1.392196774E0
3.101060729E0,1.717366099E0,1.044955730E1,1.368242025E0
3.103065365E0,1.722157001E0,1.049746609E1,1.329914331E0
3.105070000E0,1.741320848E0,1.055495834E1,1.310750484E0
3.107074635E0,1.712575078E0,1.057412148E1,1.258049965E0
3.109079271E0,1.717366099E0,1.062203121E1,1.253259063E0
3.111083906E0,1.746111870E0,1.063640404E1,1.214931369E0
3.113088542E0,1.750902772E0,1.062203121E1,1.190976620E0
3.115093177E0,1.736529946E0,1.062682247E1,1.181394696E0
3.117097812E0,1.731738925E0,1.060286713E1,1.181394696E0
3.119102448E0,1.693411350E0,1.058370399E1,1.147857904E0
3.121107083E0,1.621546984E0,1.053100300E1,1.152648926E0
3.123111719E0,1.597592115E0,1.048788452E1,1.157439828E0
3.125116354E0,1.549682617E0,1.042081165E1,1.152648926E0
3.127120990E0,1.496982098E0,1.035373783E1,1.176603675E0
3.129125625E0,1.463445425E0,1.025312805E1,1.200558424E0
3.131130260E0,1.429908633E0,1.015251732E1,1.229304194E0
3.133134896E0,1.415535808E0,1.008544445E1,1.262840986E0
3.135139531E0,1.425117731E0,1.000399780E1,1.282004833E0
3.137144167E0,1.386790037E0,9.917760849E0,1.301168561E0
3.139148802E0,1.386790037E0,9.860269547E0,1.339496255E0
3.141153437E0,1.381999135E0,9.797986984E0,1.358660102E0
3.143158073E0,1.367626190E0,9.740495682E0,1.382614851E0
3.145162708E0,1.348462343E0,9.692585945E0,1.392196774E0
3.147167344E0,1.377208114E0,9.635094643E0,1.396987796E0
3.149171979E0,1.372417212E0,9.582393646E0,1.401778698E0
3.151176562E0,1.343671441E0,9.553647995E0,1.416151524E0
3.153181146E0,1.358044267E0,9.510529518E0,1.382614851E0
3.155185729E0,1.338880539E0,9.481783867E0,1.377823949E0
3.157190312E0,1.338880539E0,9.438665390E0,1.368242025E0
3.159194896E0,1.353253365E0,9.409918785E0,1.339496255E0
3.161199479E0,1.338880539E0,9.371591568E0,1.320332408E0
3.163204062E0,1.348462343E0,9.366800308E0,1.291586637E0
3.165208646E0,1.348462343E0,9.338054657E0,1.272422910E0
3.167213229E0,1.334089518E0,9.304517746E0,1.214931369E0
3.169217812E0,1.334089518E0,9.309309006E0,1.186185598E0
3.171222396E0,1.329298615E0,9.270981789E0,1.138275981E0
3.173226979E0,1.329298615E0,9.223072052E0,1.128694177E0
3.175231562E0,1.338880539E0,9.208699226E0,1.104739308E0
3.177236146E0,1.334089518E0,9.208699226E0,1.085575461E0
3.179240729E0,1.324507594E0,9.175162315E0,1.056829810E0
3.181245312E0,1.305343747E0,9.175162315E0,1.023293018E0
3.183249896E0,1.286179900E0,9.151207924E0,9.945473075E-1
3.185254479E0,1.319716692E0,9.155998230E0,9.753834605E-1
3.187259062E0,1.267016172E0,9.160789490E0,9.466377497E-1
3.189263646E0,1.262225151E0,9.165580750E0,9.226829410E-1
3.191268229E0,1.243061304E0,9.160789490E0,9.131010175E-1
3.193272812E0,1.243061304E0,9.194326401E0,8.843553066E-1
3.195277396E0,1.219106555E0,9.194326401E0,8.795643449E-1
3.197281979E0,1.204733729E0,9.218280792E0,8.412366509E-1
3.199286562E0,1.199942708E0,9.247026443E0,8.508185744E-1
3.201291146E0,1.195151806E0,9.261399269E0,8.220728636E-1
3.203295729E0,1.180778861E0,9.285354614E0,8.172819018E-1
3.205300312E0,1.171196938E0,9.318890572E0,8.172819018E-1
3.207304896E0,1.142451286E0,9.362010002E0,7.933270931E-1
3.209309479E0,1.123287439E0,9.376382828E0,8.029090166E-1
3.211314062E0,1.118496418E0,9.414710045E0,8.220728636E-1
3.213318646E0,1.118496418E0,9.429082870E0,8.364456892E-1
3.215323229E0,1.099332571E0,9.476992607E0,8.508185744E-1
3.217327812E0,1.094541669E0,9.496156693E0,8.508185744E-1
3.219332396E0,1.075377822E0,9.515319824E0,8.795643449E-1
3.221336979E0,1.075377822E0,9.529693604E0,8.939371705E-1
3.223341562E0,1.061004996E0,9.553647995E0,9.322648644E-1
3.225346146E0,1.051423073E0,9.544066429E0,9.514287114E-1
3.227350729E0,1.027468324E0,9.568020821E0,9.658015370E-1
3.229355312E0,1.003513575E0,9.582393646E0,9.801744223E-1
3.231359896E0,1.003513575E0,9.587184906E0,9.993382692E-1
3.233364479E0,1.003513575E0,9.606348038E0,1.008920193E0
3.235369062E0,9.939315915E-1,9.601557732E0,1.032874942E0
3.237373646E0,9.987225533E-1,9.601557732E0,1.052038789E0
3.239378229E0,9.939315915E-1,9.582393646E0,1.085575461E0
3.241382812E0,9.939315915E-1,9.591975212E0,1.104739308E0
3.243387396E0,9.795587063E-1,9.611139297E0,1.138275981E0
3.245391979E0,9.651858211E-1,9.601557732E0,1.171812773E0
3.247396562E0,9.556038976E-1,9.601557732E0,1.152648926E0
3.249401146E0,9.603948593E-1,9.587184906E0,1.167021751E0
3.251405729E0,9.508129358E-1,9.582393646E0,1.200558424E0
3.253410312E0,9.220672250E-1,9.568020821E0,1.186185598E0
3.255414896E0,9.364401102E-1,9.572812080E0,1.200558424E0
3.257419479E0,9.316491485E-1,9.577602386E0,1.224513292E0
3.259424062E0,9.172762632E-1,9.577602386E0,1.214931369E0
3.261428646E0,9.172762632E-1,9.568020821E0,1.229304194E0
3.263433229E0,9.220672250E-1,9.582393646E0,1.234095216E0
3.265437812E0,8.885304928E-1,9.577602386E0,1.219722271E0
3.267442396E0,9.124853015E-1,9.582393646E0,1.210140347E0
3.269446979E0,9.076943398E-1,9.596766472E0,1.205349445E0
3.271451562E0,9.076943398E-1,9.615930557E0,1.205349445E0
3.273456146E0,9.172762632E-1,9.630303383E0,1.181394696E0
3.275460729E0,9.076943398E-1,9.625512123E0,1.171812773E0
3.277465312E0,9.076943398E-1,9.644676208E0,1.133485079E0
3.279469896E0,9.029033780E-1,9.663840294E0,1.133485079E0
3.281474479E0,8.933214545E-1,9.678213120E0,1.109530330E0
3.283479062E0,8.933214545E-1,9.697376251E0,1.095157385E0
3.285483646E0,9.029033780E-1,9.716540337E0,1.032874942E0
3.287488229E0,8.837395310E-1,9.735704422E0,1.028084040E0
3.289492812E0,8.741576672E-1,9.774031639E0,1.013711214E0
3.291497448E0,8.741576672E-1,9.783614159E0,9.753834605E-1
3.293502083E0,8.789486289E-1,9.812359810E0,9.418467879E-1
3.295506719E0,8.741576672E-1,9.855478287E0,9.083100557E-1
3.297511354E0,8.741576672E-1,9.874642372E0,8.747733831E-1
3.299515990E0,8.597847819E-1,9.922552109E0,8.556095362E-1
3.301520625E0,8.454118967E-1,9.956088066E0,8.316547275E-1
3.303525260E0,8.597847819E-1,1.000878906E1,7.885361314E-1
3.305529896E0,8.645757437E-1,1.003274345E1,7.502084970E-1
3.307534531E0,8.597847819E-1,1.007107162E1,7.262536883E-1
3.309539167E0,8.502028584E-1,1.009502602E1,6.831350923E-1
3.311543802E0,8.454118967E-1,1.014772701E1,6.687622070E-1
3.313548437E0,8.454118967E-1,1.018126297E1,6.591803432E-1
3.315553073E0,8.454118967E-1,1.021000862E1,6.400164962E-1
3.317557708E0,8.502028584E-1,1.025312805E1,6.112707257E-1
3.319562344E0,8.454118967E-1,1.029624653E1,6.016888022E-1
3.321566979E0,8.214571476E-1,1.032499218E1,5.729430914E-1
3.323571615E0,8.262480497E-1,1.037290192E1,5.729430914E-1
3.325576250E0,8.166661859E-1,1.040643787E1,5.681521297E-1
3.327580885E0,8.022933006E-1,1.043518448E1,5.346154571E-1
3.329585521E0,7.975023389E-1,1.043039322E1,5.394063592E-1
3.331590156E0,7.879204154E-1,1.043997478E1,5.346154571E-1
3.333594792E0,7.687565684E-1,1.045434761E1,5.298244953E-1
3.335599427E0,7.687565684E-1,1.046872044E1,5.537792444E-1
3.337604062E0,7.639656067E-1,1.046393013E1,5.441973209E-1
3.339608698E0,7.352198958E-1,1.046393013E1,5.489882827E-1
3.341613333E0,6.921012998E-1,1.045434761E1,5.585702062E-1
3.343617969E0,6.968922615E-1,1.043997478E1,5.777340531E-1
3.345622604E0,6.633555293E-1,1.043997478E1,5.777340531E-1
3.347627240E0,6.298188567E-1,1.042560196E1,6.016888022E-1
3.349631875E0,6.058640480E-1,1.039206505E1,6.256436110E-1
3.351636510E0,5.962821245E-1,1.036811066E1,6.304345727E-1
3.353641146E0,5.579544902E-1,1.033936501E1,6.543893814E-1
3.355645781E0,5.148358941E-1,1.030103683E1,6.831350923E-1
3.357650417E0,5.004630089E-1,1.027229118E1,7.118808627E-1
3.359655052E0,4.429715276E-1,1.024833679E1,7.310446501E-1
3.361659687E0,4.333896041E-1,1.020521832E1,7.406265736E-1
3.363664323E0,4.046438932E-1,1.016689014E1,7.741632462E-1
3.365668958E0,3.711071610E-1,1.015251732E1,7.789542079E-1
3.367673542E0,3.231976032E-1,1.011898041E1,7.933270931E-1
3.369678125E0,2.848699391E-1,1.008065319E1,8.220728636E-1
3.371682708E0,2.609151602E-1,1.006148911E1,8.316547275E-1
3.373687292E0,2.321694046E-1,1.002795315E1,8.412366509E-1
3.375691875E0,1.986327171E-1,9.989624977E0,8.412366509E-1
3.377696458E0,1.603050530E-1,9.956088066E0,8.699824214E-1
3.379701042E0,1.219773963E-1,9.922552109E0,8.699824214E-1
3.381705625E0,1.171864420E-1,9.884223938E0,8.891462684E-1
3.383710208E0,7.885878533E-2,9.860269547E0,8.795643449E-1
3.385714792E0,6.448591501E-2,9.836314201E0,8.508185744E-1
3.387719375E0,4.053112864E-2,9.793195724E0,8.699824214E-1
3.389723958E0,2.136730030E-2,9.788404465E0,8.699824214E-1
3.391728542E0,-2.175131440E-2,9.745285988E0,8.460276127E-1
3.393733125E0,-2.654226869E-2,9.726122856E0,8.220728636E-1
3.395737708E0,-6.486992538E-2,9.692585945E0,8.220728636E-1
3.397742292E0,-8.403375745E-2,9.673421860E0,8.029090166E-1
3.399746875E0,-1.031975895E-1,9.663840294E0,7.933270931E-1
3.401751458E0,-1.079885364E-1,9.659049034E0,7.645813823E-1
3.403756042E0,-1.319433302E-1,9.630303383E0,7.502084970E-1
3.405760625E0,-1.558981091E-1,9.635094643E0,7.118808627E-1
3.407765208E0,-1.558981091E-1,9.615930557E0,6.831350923E-1
3.409769792E0,-1.702709794E-1,9.625512123E0,6.495984197E-1
3.411774375E0,-1.894348115E-1,9.639884949E0,6.304345727E-1
3.413778958E0,-2.038076967E-1,9.635094643E0,5.873159766E-1
3.415783542E0,-2.277624756E-1,9.625512123E0,5.441973209E-1
3.417788125E0,-2.373443693E-1,9.630303383E0,5.202425718E-1
3.419792708E0,-2.469262928E-1,9.659049034E0,4.819149077E-1
3.421797292E0,-2.612991929E-1,9.663840294E0,4.483782053E-1
3.423801875E0,-2.708810568E-1,9.668630600E0,3.956776857E-1
3.425806458E0,-2.660901546E-1,9.678213120E0,3.765138388E-1
3.427811042E0,-2.708810568E-1,9.702167511E0,3.429771662E-1
3.429815625E0,-2.900449038E-1,9.716540337E0,3.046495020E-1
3.431820208E0,-3.139997125E-1,9.721331596E0,2.663218379E-1
3.433824792E0,-2.900449038E-1,9.745285988E0,2.375760972E-1
3.435829375E0,-2.900449038E-1,9.764450073E0,2.040393949E-1
3.437833958E0,-2.708810568E-1,9.774031639E0,1.752936542E-1
3.439838542E0,-3.044177890E-1,9.797986984E0,1.369659901E-1
3.441843125E0,-2.996268272E-1,9.793195724E0,1.130112112E-1
3.443847708E0,-2.948358655E-1,9.812359810E0,7.468354702E-2
3.445852292E0,-3.283725977E-1,9.836314201E0,6.510163844E-2
3.447856875E0,-2.900449038E-1,9.860269547E0,4.114684463E-2
3.449861458E0,-3.044177890E-1,9.884223938E0,7.610157132E-3
3.451866042E0,-3.139997125E-1,9.912969589E0,-6.762728095E-3
3.453870625E0,-3.331634998E-1,9.917760849E0,-2.592654526E-2
3.455875208E0,-3.187906742E-1,9.936924934E0,-5.467228591E-2
3.457879792E0,-3.283725977E-1,9.956088066E0,-5.946324766E-2
3.459884375E0,-3.331634998E-1,9.970460892E0,-7.383613288E-2
3.461888958E0,-2.996268272E-1,9.999206543E0,-7.862706482E-2
3.463893542E0,-3.139997125E-1,1.002316189E1,-9.299995005E-2
3.465898125E0,-3.092087507E-1,1.003753471E1,-1.073728055E-1
3.467902708E0,-3.187906742E-1,1.005669880E1,-1.169547290E-1
3.469907292E0,-3.379544616E-1,1.006148911E1,-1.169547290E-1
3.471911875E0,-3.139997125E-1,1.009502602E1,-1.217456907E-1
3.473916458E0,-2.996268272E-1,1.010460758E1,-1.361185759E-1
3.475921042E0,-3.187906742E-1,1.013335419E1,-1.313276142E-1
3.477925625E0,-3.139997125E-1,1.012856293E1,-1.169547290E-1
3.479930208E0,-3.092087507E-1,1.016689014E1,-1.265366524E-1
3.481934792E0,-3.092087507E-1,1.015730858E1,-1.361185759E-1
3.483939375E0,-2.948358655E-1,1.015251732E1,-1.217456907E-1
3.485943958E0,-2.948358655E-1,1.017647266E1,-1.265366524E-1
3.487948542E0,-2.996268272E-1,1.018126297E1,-1.217456907E-1
3.489953125E0,-2.900449038E-1,1.019563580E1,-1.217456907E-1
3.491957708E0,-2.948358655E-1,1.020521832E1,-8.820898831E-2
3.493962292E0,-2.948358655E-1,1.020042706E1,-9.299995005E-2
3.495966875E0,-3.044177890E-1,1.021479988E1,-1.025818735E-1
3.497971458E0,-2.852539420E-1,1.021479988E1,-8.820898831E-2
3.499976042E0,-2.900449038E-1,1.021479988E1,-6.904517114E-2
3.501980625E0,-2.565082312E-1,1.021000862E1,-3.550846875E-2
3.503985208E0,-2.612991929E-1,1.020042706E1,-4.988132417E-2
3.505989844E0,-2.565082312E-1,1.018605423E1,-1.634462178E-2
3.507994479E0,-2.517172694E-1,1.017647266E1,2.819195390E-3
3.509999115E0,-2.469262928E-1,1.018126297E1,-6.762728095E-3
3.512003750E0,-2.229715139E-1,1.016689014E1,3.156493604E-2
3.514008385E0,-2.133895904E-1,1.016209984E1,5.072876811E-2
3.516013021E0,-1.990167350E-1,1.015251732E1,5.072876811E-2
3.518017656E0,-1.942257732E-1,1.011898041E1,6.989260018E-2
3.520022292E0,-1.750619411E-1,1.009502602E1,8.905641735E-2
3.522026927E0,-1.846438497E-1,1.010460758E1,1.178021580E-1
3.524031562E0,-1.511071622E-1,1.008065319E1,1.273840815E-1
3.526036198E0,-1.415252388E-1,1.005190754E1,1.465479136E-1
3.528040833E0,-1.271523684E-1,1.003274345E1,1.800846159E-1
3.530045469E0,-1.271523684E-1,9.999206543E0,1.848755628E-1
3.532050104E0,-1.223614067E-1,9.980043411E0,2.040393949E-1
3.534054740E0,-9.840662777E-2,9.965670586E0,2.232032120E-1
3.536059375E0,-1.031975895E-1,9.946506500E0,2.279941738E-1
3.538064010E0,-8.403375745E-2,9.917760849E0,2.615308762E-1
3.540068646E0,-6.486992538E-2,9.879432678E0,2.902766168E-1
3.542073281E0,-3.612418473E-2,9.850687027E0,2.854856551E-1
3.544077917E0,-3.133323044E-2,9.836314201E0,3.046495020E-1
3.546082552E0,-2.175131440E-2,9.802777290E0,3.046495020E-1
3.548087187E0,-2.175131440E-2,9.778822899E0,3.190223575E-1
3.550091823E0,-1.696036011E-2,9.735704422E0,3.525590599E-1
3.552096458E0,2.136730030E-2,9.706958771E0,3.525590599E-1
3.554101094E0,6.994426250E-3,9.721331596E0,3.669319153E-1
3.556105729E0,3.094921261E-2,9.687794685E0,3.765138388E-1
3.558110365E0,4.053112864E-2,9.649467468E0,3.669319153E-1
3.560115000E0,5.011304095E-2,9.625512123E0,3.956776857E-1
3.562119635E0,8.844070137E-2,9.611139297E0,4.004686475E-1
3.564124271E0,8.364973962E-2,9.582393646E0,3.908867240E-1
3.566128906E0,8.844070137E-2,9.577602386E0,4.196324646E-1
3.568133542E0,9.802260995E-2,9.548856735E0,4.148415029E-1
3.570138177E0,1.363502741E-1,9.524902344E0,4.100505412E-1
3.572142812E0,1.411412358E-1,9.491365433E0,4.100505412E-1
3.574147448E0,1.698869765E-1,9.491365433E0,4.196324646E-1
3.576152083E0,1.746779233E-1,9.486574173E0,4.244233966E-1
3.578156719E0,1.698869765E-1,9.467411041E0,4.196324646E-1
3.580161354E0,2.034236640E-1,9.438665390E0,4.052596092E-1
3.582165990E0,2.225874960E-1,9.424292564E0,4.196324646E-1
3.584170573E0,2.369603664E-1,9.409918785E0,4.004686475E-1
3.586175156E0,2.609151602E-1,9.381173134E0,3.908867240E-1
3.588179740E0,2.465422899E-1,9.385964394E0,3.956776857E-1
3.590184323E0,2.561241984E-1,9.366800308E0,3.908867240E-1
3.592188906E0,2.704970837E-1,9.338054657E0,4.052596092E-1
3.594193490E0,2.752880454E-1,9.323681831E0,4.004686475E-1
3.596198073E0,2.944518328E-1,9.314100266E0,3.860957623E-1
3.598202656E0,2.944518328E-1,9.314100266E0,3.908867240E-1
3.600207240E0,3.088247180E-1,9.294936180E0,4.052596092E-1
3.602211823E0,3.040337563E-1,9.294936180E0,3.956776857E-1
3.604216406E0,3.184066415E-1,9.266190529E0,3.813048005E-1
3.606220990E0,3.327795267E-1,9.266190529E0,3.813048005E-1
3.608225573E0,3.471523523E-1,9.275772095E0,3.669319153E-1
3.610230156E0,3.519433141E-1,9.270981789E0,3.717228770E-1
3.612234740E0,3.615252376E-1,9.251817703E0,3.381862044E-1
3.614239323E0,3.663161993E-1,9.261399269E0,3.286042809E-1
3.616243906E0,3.806890845E-1,9.261399269E0,3.190223575E-1
3.618248490E0,4.094347954E-1,9.247026443E0,2.950675786E-1
3.620253073E0,4.285986423E-1,9.270981789E0,2.854856551E-1
3.622257656E0,4.190167189E-1,9.285354614E0,2.615308762E-1
3.624262240E0,4.333896041E-1,9.290144920E0,2.567399144E-1
3.626266823E0,4.477624893E-1,9.304517746E0,2.375760972E-1
3.628271406E0,4.717172384E-1,9.309309006E0,2.279941738E-1
3.630275990E0,4.908810854E-1,9.338054657E0,2.088303566E-1
3.632280573E0,5.052539706E-1,9.333264351E0,2.040393949E-1
3.634285156E0,5.100449324E-1,9.352427483E0,1.705026925E-1
3.636289740E0,5.435816050E-1,9.400337219E0,1.800846159E-1
3.638294323E0,5.962821245E-1,9.419501305E0,1.609207690E-1
3.640298906E0,6.106550097E-1,9.476992607E0,1.657117307E-1
3.642303490E0,6.441916823E-1,9.515319824E0,1.369659901E-1
3.644308073E0,6.968922615E-1,9.577602386E0,1.369659901E-1
3.646312656E0,7.304289341E-1,9.663840294E0,1.465479136E-1
3.648317240E0,7.687565684E-1,9.735704422E0,1.417569518E-1
3.650321823E0,8.166661859E-1,9.850687027E0,1.130112112E-1
3.652326406E0,8.502028584E-1,9.975252151E0,9.863834083E-2
3.654330990E0,8.933214545E-1,1.005669880E1,1.082202494E-1
3.656335573E0,9.412310719E-1,1.020042706E1,1.034292877E-1
3.658340156E0,9.939315915E-1,1.032978344E1,6.989260018E-2
3.660344740E0,1.037050247E0,1.045913887E1,7.468354702E-2
3.662349323E0,1.056213975E0,1.059328556E1,7.947450876E-2
3.664353906E0,1.108914495E0,1.069868660E1,7.468354702E-2
3.666358490E0,1.142451286E0,1.081846046E1,8.905641735E-2
3.668363073E0,1.185569882E0,1.091427994E1,7.947450876E-2
3.670367656E0,1.209524632E0,1.101009846E1,1.130112112E-1
3.672372240E0,1.252643228E0,1.107238102E1,1.417569518E-1
3.674376823E0,1.281388998E0,1.112029076E1,1.944574714E-1
3.676381406E0,1.319716692E0,1.114424610E1,2.279941738E-1
3.678385990E0,1.381999135E0,1.115861893E1,3.094404340E-1
3.680390573E0,1.415535808E0,1.117299175E1,3.813048005E-1
3.682395156E0,1.463445425E0,1.114903641E1,4.435872436E-1
3.684399740E0,1.482609153E0,1.114424610E1,5.250335336E-1
3.686404323E0,1.549682617E0,1.112987328E1,6.256436110E-1
3.688408906E0,1.578428388E0,1.110591793E1,7.214627862E-1
3.690413490E0,1.611965060E0,1.107717228E1,8.076999784E-1
3.692418073E0,1.626337886E0,1.108196354E1,8.987281322E-1
3.694422656E0,1.631128907E0,1.106759071E1,1.004129291E0
3.696427240E0,1.655083656E0,1.107717228E1,1.119112253E0
3.698431823E0,1.664665580E0,1.109154510E1,1.214931369E0
3.700436406E0,1.679038405E0,1.109633636E1,1.305959582E0
3.702440990E0,1.674247503E0,1.113466358E1,1.420942545E0
3.704445573E0,1.664665580E0,1.113466358E1,1.502388835E0
3.706450156E0,1.679038405E0,1.113945484E1,1.583835125E0
3.708454740E0,1.683829427E0,1.111549950E1,1.665281296E0
3.710459323E0,1.693411350E0,1.113945484E1,1.717981935E0
3.712463906E0,1.679038405E0,1.111070919E1,1.799428105E0
3.714468490E0,1.664665580E0,1.105321789E1,1.866501570E0
3.716473125E0,1.655083656E0,1.099093533E1,1.933574915E0
3.718477760E0,1.650292635E0,1.092386150E1,1.976693511E0
3.720482396E0,1.650292635E0,1.082325172E1,2.010230303E0
3.722487031E0,1.626337886E0,1.074180508E1,2.077303648E0
3.724491667E0,1.635919809E0,1.063640404E1,2.125213146E0
3.726496302E0,1.621546984E0,1.051183891E1,2.163540840E0
3.728500937E0,1.631128907E0,1.039685631E1,2.225823164E0
3.730505573E0,1.621546984E0,1.027229118E1,2.259360075E0
3.732510208E0,1.602383137E0,1.015251732E1,2.326433420E0
3.734514844E0,1.597592115E0,1.003753471E1,2.383924961E0
3.736519479E0,1.588010311E0,9.927342415E0,2.412670612E0
3.738524115E0,1.588010311E0,9.817150116E0,2.470162153E0
3.740528750E0,1.564055443E0,9.735704422E0,2.513280869E0
3.742533385E0,1.573637366E0,9.659049034E0,2.522862673E0
3.744538021E0,1.568846464E0,9.591975212E0,2.542026520E0
3.746542656E0,1.554473519E0,9.510529518E0,2.570772171E0
3.748547292E0,1.520936847E0,9.462619781E0,2.589936018E0
3.750551927E0,1.525727868E0,9.400337219E0,2.618681908E0
3.752556562E0,1.492191076E0,9.347637177E0,2.585144997E0
3.754561198E0,1.496982098E0,9.290144920E0,2.561190367E0
3.756565833E0,1.477818251E0,9.261399269E0,2.565981388E0
3.758570469E0,1.473027229E0,9.223072052E0,2.542026520E0
3.760575104E0,1.468236327E0,9.165580750E0,2.498907804E0
3.762579740E0,1.444281578E0,9.136835098E0,2.489326000E0
3.764584375E0,1.429908633E0,9.103298187E0,2.446207285E0
3.766589010E0,1.415535808E0,9.069761276E0,2.393506765E0
3.768593646E0,1.386790037E0,9.036224365E0,2.355179071E0
3.770598281E0,1.358044267E0,9.002687454E0,2.307269573E0
3.772602917E0,1.353253365E0,8.978733063E0,2.254569054E0
3.774607552E0,1.324507594E0,8.945196152E0,2.216241360E0
3.776612187E0,1.310134768E0,8.906868935E0,2.130004168E0
3.778616823E0,1.281388998E0,8.897286415E0,2.072512627E0
3.780621458E0,1.281388998E0,8.878123283E0,2.010230303E0
3.782626094E0,1.238270402E0,8.863750458E0,1.928784013E0
3.784630729E0,1.228688478E0,8.863750458E0,1.856919646E0
3.786635365E0,1.190360785E0,8.839795113E0,1.789846182E0
3.788640000E0,1.175987959E0,8.835004807E0,1.703608990E0
3.790644635E0,1.152033210E0,8.835004807E0,1.617371798E0
3.792649271E0,1.132869363E0,8.830213547E0,1.545507431E0
3.794653854E0,1.099332571E0,8.839795113E0,1.464061141E0
3.796658437E0,1.061004996E0,8.835004807E0,1.392196774E0
3.798663021E0,1.037050247E0,8.835004807E0,1.305959582E0
3.800667604E0,1.027468324E0,8.835004807E0,1.238886118E0
3.802672187E0,9.891406298E-1,8.863750458E0,1.181394696E0
3.804676771E0,9.651858211E-1,8.868540764E0,1.104739308E0
3.806681354E0,9.508129358E-1,8.868540764E0,1.037665963E0
3.808685937E0,9.029033780E-1,8.863750458E0,9.466377497E-1
3.810690521E0,8.933214545E-1,8.868540764E0,9.178919792E-1
3.812695104E0,8.741576672E-1,8.887704849E0,8.651914597E-1
3.814699687E0,8.597847819E-1,8.902077675E0,8.364456892E-1
3.816704271E0,8.262480497E-1,8.902077675E0,7.933270931E-1
3.818708854E0,8.214571476E-1,8.892496109E0,7.693722844E-1
3.820713437E0,8.022933006E-1,8.906868935E0,7.502084970E-1
3.822718021E0,8.022933006E-1,8.911659241E0,7.406265736E-1
3.824722604E0,7.879204154E-1,8.926033020E0,7.406265736E-1
3.826727187E0,7.735475302E-1,8.945196152E0,7.166718245E-1
3.828731771E0,7.687565684E-1,8.949987411E0,7.214627862E-1
3.830736354E0,7.687565684E-1,8.973941803E0,7.022989392E-1
3.832740937E0,7.831294537E-1,9.012269974E0,6.975079775E-1
3.834745521E0,7.591747046E-1,9.036224365E0,7.118808627E-1
3.836750104E0,7.543837428E-1,9.060179710E0,7.262536883E-1
3.838754687E0,7.591747046E-1,9.084134102E0,7.358356118E-1
3.840759271E0,7.783384919E-1,9.127252579E0,7.310446501E-1
3.842763854E0,7.783384919E-1,9.151207924E0,7.262536883E-1
3.844768437E0,7.687565684E-1,9.175162315E0,7.645813823E-1
3.846773021E0,7.975023389E-1,9.208699226E0,7.454175353E-1
3.848777604E0,8.118752241E-1,9.256608963E0,7.645813823E-1
3.850782187E0,8.262480497E-1,9.285354614E0,7.789542079E-1
3.852786771E0,8.358299732E-1,9.323681831E0,7.837451696E-1
3.854791354E0,8.406209350E-1,9.371591568E0,8.029090166E-1
3.856795937E0,8.693667054E-1,9.405128479E0,8.172819018E-1
3.858800521E0,8.789486289E-1,9.438665390E0,8.460276127E-1
3.860805104E0,8.981124163E-1,9.491365433E0,8.508185744E-1
3.862809687E0,9.220672250E-1,9.529693604E0,8.651914597E-1
3.864814271E0,9.268581867E-1,9.568020821E0,8.987281322E-1
3.866818854E0,9.508129358E-1,9.611139297E0,9.178919792E-1
3.868823437E0,9.556038976E-1,9.668630600E0,9.418467879E-1
3.870828021E0,9.987225533E-1,9.702167511E0,9.705924988E-1
3.872832604E0,1.008304477E0,9.735704422E0,1.018502116E0
3.874837187E0,1.032259226E0,9.754868507E0,1.061620712E0
3.876841771E0,1.041841149E0,9.793195724E0,1.080784559E0
3.878846354E0,1.075377822E0,9.821941376E0,1.133485079E0
3.880850937E0,1.113705516E0,9.855478287E0,1.152648926E0
3.882855521E0,1.137660265E0,9.869851112E0,1.210140347E0
3.884860104E0,1.175987959E0,9.908178329E0,1.238886118E0
3.886864687E0,1.214315653E0,9.941715240E0,1.291586637E0
3.888869271E0,1.271807075E0,9.970460892E0,1.315541506E0
3.890873854E0,1.295761824E0,9.970460892E0,1.353869081E0
3.892878437E0,1.310134768E0,9.999206543E0,1.382614851E0
3.894883021E0,1.358044267E0,1.000878906E1,1.420942545E0
3.896887604E0,1.391581059E0,1.003274345E1,1.464061141E0
3.898892187E0,1.434699655E0,1.005669880E1,1.473643064E0
3.900896771E0,1.473027229E0,1.005190754E1,1.511970758E0
3.902901354E0,1.496982098E0,1.007107162E1,1.535925508E0
3.904905937E0,1.540100694E0,1.007107162E1,1.569462180E0
3.906910521E0,1.554473519E0,1.009981728E1,1.593417048E0
3.908915104E0,1.592801213E0,1.011898041E1,1.626953721E0
3.910919687E0,1.607174039E0,1.013335419E1,1.646117568E0
3.912924271E0,1.616755962E0,1.012856293E1,1.665281296E0
3.914928854E0,1.659874558E0,1.016209984E1,1.713190913E0
3.916933437E0,1.679038405E0,1.016689014E1,1.717981935E0
3.918938021E0,1.679038405E0,1.017168140E1,1.737145662E0
3.920942656E0,1.693411350E0,1.016689014E1,1.770682454E0
3.922947292E0,1.712575078E0,1.017168140E1,1.809010029E0
3.924951927E0,1.736529946E0,1.018605423E1,1.809010029E0
3.926956562E0,1.726948023E0,1.017168140E1,1.818591952E0
3.928961198E0,1.736529946E0,1.019084549E1,1.842546701E0
3.930965833E0,1.741320848E0,1.019084549E1,1.880874395E0
3.932970469E0,1.736529946E0,1.016689014E1,1.900038242E0
3.934975104E0,1.755693793E0,1.017168140E1,1.919202089E0
3.936979740E0,1.726948023E0,1.016209984E1,1.943156838E0
3.938984375E0,1.741320848E0,1.015730858E1,1.976693511E0
3.940989010E0,1.741320848E0,1.014293575E1,1.981484532E0
3.942993646E0,1.755693793E0,1.012856293E1,2.005439281E0
3.944998281E0,1.731738925E0,1.011898041E1,2.005439281E0
3.947002917E0,1.741320848E0,1.012856293E1,2.038975954E0
3.949007552E0,1.722157001E0,1.010939884E1,2.048557758E0
3.951012187E0,1.722157001E0,1.010460758E1,2.048557758E0
3.953016823E0,1.722157001E0,1.009023476E1,2.062930822E0
3.955021458E0,1.741320848E0,1.006628036E1,2.086885452E0
3.957026094E0,1.722157001E0,1.004711628E1,2.086885452E0
3.959030729E0,1.698202252E0,1.003753471E1,2.106049299E0
3.961035365E0,1.698202252E0,1.002316189E1,2.091676474E0
3.963040000E0,1.717366099E0,1.000878906E1,2.106049299E0
3.965044635E0,1.717366099E0,9.970460892E0,2.130004168E0
3.967049271E0,1.702993274E0,9.970460892E0,2.106049299E0
3.969053906E0,1.702993274E0,9.946506500E0,2.130004168E0
3.971058542E0,1.688620329E0,9.922552109E0,2.115631342E0
3.973063177E0,1.688620329E0,9.903388023E0,2.120422125E0
3.975067812E0,1.683829427E0,9.869851112E0,2.110840321E0
3.977072448E0,1.659874558E0,9.860269547E0,2.115631342E0
3.979077083E0,1.669456482E0,9.841105461E0,2.115631342E0
3.981081719E0,1.664665580E0,9.841105461E0,2.091676474E0
3.983086354E0,1.669456482E0,9.812359810E0,2.072512627E0
3.985090990E0,1.645501733E0,9.783614159E0,2.067721605E0
3.987095625E0,1.664665580E0,9.783614159E0,2.062930822E0
3.989100260E0,1.650292635E0,9.754868507E0,2.062930822E0
3.991104896E0,1.683829427E0,9.750077248E0,2.034184933E0
3.993109531E0,1.664665580E0,9.754868507E0,2.024603128E0
3.995114167E0,1.650292635E0,9.735704422E0,2.005439281E0
3.997118802E0,1.655083656E0,9.730913162E0,1.981484532E0
3.999123437E0,1.664665580E0,9.721331596E0,1.957529783E0
4.001128073E0,1.669456482E0,9.716540337E0,1.933574915E0
4.003132656E0,1.679038405E0,9.735704422E0,1.914411068E0
4.005137240E0,1.683829427E0,9.730913162E0,1.871292472E0
4.007141823E0,1.674247503E0,9.711749077E0,1.832964897E0
4.009146406E0,1.683829427E0,9.726122856E0,1.813801050E0
4.011150990E0,1.683829427E0,9.726122856E0,1.785055280E0
4.013155573E0,1.683829427E0,9.730913162E0,1.761100531E0
4.015160156E0,1.693411350E0,9.745285988E0,1.713190913E0
4.017164740E0,1.707784176E0,9.745285988E0,1.684445143E0
4.019169323E0,1.679038405E0,9.750077248E0,1.631744623E0
4.021173906E0,1.688620329E0,9.745285988E0,1.602998853E0
4.023178490E0,1.702993274E0,9.745285988E0,1.564671278E0
4.025183073E0,1.674247503E0,9.730913162E0,1.521552682E0
4.027187656E0,1.683829427E0,9.730913162E0,1.502388835E0
4.029192240E0,1.664665580E0,9.730913162E0,1.473643064E0
4.031196823E0,1.650292635E0,9.721331596E0,1.440106392E0
4.033201406E0,1.664665580E0,9.740495682E0,1.420942545E0
4.035205990E0,1.645501733E0,9.711749077E0,1.396987796E0
4.037210573E0,1.650292635E0,9.711749077E0,1.373032928E0
4.039215156E0,1.626337886E0,9.692585945E0,1.349078178E0
4.041219740E0,1.635919809E0,9.692585945E0,1.325123429E0
4.043224323E0,1.621546984E0,9.683003426E0,1.320332408E0
4.045228906E0,1.611965060E0,9.683003426E0,1.329914331E0
4.047233490E0,1.592801213E0,9.663840294E0,1.282004833E0
4.049238073E0,1.597592115E0,9.635094643E0,1.286795735E0
4.051242656E0,1.549682617E0,9.635094643E0,1.282004833E0
4.053247240E0,1.564055443E0,9.620721817E0,1.282004833E0
4.055251823E0,1.549682617E0,9.611139297E0,1.282004833E0
4.057256406E0,1.520936847E0,9.596766472E0,1.272422910E0
4.059260990E0,1.516145945E0,9.577602386E0,1.291586637E0
4.061265573E0,1.516145945E0,9.558439255E0,1.315541506E0
4.063270156E0,1.501773000E0,9.539275169E0,1.305959582E0
4.065274740E0,1.477818251E0,9.524902344E0,1.315541506E0
4.067279323E0,1.458654404E0,9.496156693E0,1.320332408E0
4.069283906E0,1.449072480E0,9.476992607E0,1.339496255E0
4.071288490E0,1.425117731E0,9.476992607E0,1.349078178E0
4.073293073E0,1.420326710E0,9.453038216E0,1.353869081E0
4.075297656E0,1.425117731E0,9.438665390E0,1.353869081E0
4.077302240E0,1.401162982E0,9.429082870E0,1.382614851E0
4.079306823E0,1.377208114E0,9.424292564E0,1.377823949E0
4.081311406E0,1.372417212E0,9.433874130E0,1.377823949E0
4.083315990E0,1.377208114E0,9.414710045E0,1.382614851E0
4.085320573E0,1.367626190E0,9.419501305E0,1.373032928E0
4.087325156E0,1.362835288E0,9.433874130E0,1.382614851E0
4.089329740E0,1.367626190E0,9.429082870E0,1.377823949E0
4.091334323E0,1.362835288E0,9.429082870E0,1.396987796E0
4.093338906E0,1.348462343E0,9.448246956E0,1.377823949E0
4.095343490E0,1.338880539E0,9.453038216E0,1.349078178E0
4.097348073E0,1.338880539E0,9.467411041E0,1.358660102E0
4.099352656E0,1.338880539E0,9.462619781E0,1.353869081E0
4.101357240E0,1.329298615E0,9.496156693E0,1.339496255E0
4.103361823E0,1.314925671E0,9.491365433E0,1.329914331E0
4.105366406E0,1.300552845E0,9.524902344E0,1.325123429E0
4.107370990E0,1.300552845E0,9.534483910E0,1.310750484E0
4.109375573E0,1.295761824E0,9.553647995E0,1.305959582E0
4.111380156E0,1.290970922E0,9.558439255E0,1.301168561E0
4.113384740E0,1.257434249E0,9.572812080E0,1.301168561E0
4.115389323E0,1.281388998E0,9.591975212E0,1.301168561E0
4.117393906E0,1.257434249E0,9.587184906E0,1.296377659E0
4.119398490E0,1.257434249E0,9.601557732E0,1.305959582E0
4.121403073E0,1.252643228E0,9.630303383E0,1.305959582E0
4.123407656E0,1.228688478E0,9.630303383E0,1.329914331E0
4.125412292E0,1.233479381E0,9.649467468E0,1.315541506E0
4.127416927E0,1.238270402E0,9.625512123E0,1.310750484E0
4.129421562E0,1.219106555E0,9.644676208E0,1.344287276E0
4.131426198E0,1.228688478E0,9.659049034E0,1.353869081E0
4.133430833E0,1.238270402E0,9.659049034E0,1.368242025E0
4.135435469E0,1.238270402E0,9.663840294E0,1.387405872E0
4.137440104E0,1.223897457E0,9.663840294E0,1.392196774E0
4.139444740E0,1.219106555E0,9.663840294E0,1.387405872E0
4.141449375E0,1.219106555E0,9.683003426E0,1.392196774E0
4.143454010E0,1.204733729E0,9.663840294E0,1.411360621E0
4.145458646E0,1.247852325E0,9.683003426E0,1.435315371E0
4.147463281E0,1.219106555E0,9.692585945E0,1.449688315E0
4.149467917E0,1.219106555E0,9.683003426E0,1.444897294E0
4.151472552E0,1.233479381E0,9.697376251E0,1.454479218E0
4.153477187E0,1.219106555E0,9.697376251E0,1.468852162E0
4.155481823E0,1.199942708E0,9.706958771E0,1.478433967E0
4.157486458E0,1.199942708E0,9.721331596E0,1.497597814E0
4.159491094E0,1.204733729E0,9.721331596E0,1.488015890E0
4.161495729E0,1.204733729E0,9.721331596E0,1.507179737E0
4.163500365E0,1.199942708E0,9.730913162E0,1.502388835E0
4.165505000E0,1.195151806E0,9.716540337E0,1.516761661E0
4.167509635E0,1.166406035E0,9.730913162E0,1.540716410E0
4.169514271E0,1.171196938E0,9.740495682E0,1.531134605E0
4.171518906E0,1.156824112E0,9.726122856E0,1.535925508E0
4.173523542E0,1.152033210E0,9.726122856E0,1.521552682E0
4.175528177E0,1.142451286E0,9.726122856E0,1.540716410E0
4.177532812E0,1.123287439E0,9.711749077E0,1.535925508E0
4.179537448E0,1.156824112E0,9.721331596E0,1.545507431E0
4.181542083E0,1.142451286E0,9.716540337E0,1.555089355E0
4.183546719E0,1.137660265E0,9.702167511E0,1.540716410E0
4.185551354E0,1.123287439E0,9.711749077E0,1.545507431E0
4.187555990E0,1.128078341E0,9.702167511E0,1.550298333E0
4.189560625E0,1.118496418E0,9.687794685E0,1.555089355E0
4.191565260E0,1.094541669E0,9.687794685E0,1.559880257E0
4.193569896E0,1.113705516E0,9.683003426E0,1.559880257E0
4.195574531E0,1.118496418E0,9.673421860E0,1.550298333E0
4.197579167E0,1.132869363E0,9.659049034E0,1.550298333E0
4.199583802E0,1.128078341E0,9.668630600E0,1.531134605E0
4.201588437E0,1.118496418E0,9.649467468E0,1.550298333E0
4.203593073E0,1.118496418E0,9.639884949E0,1.531134605E0
4.205597708E0,1.147242188E0,9.639884949E0,1.521552682E0
4.207602292E0,1.132869363E0,9.625512123E0,1.521552682E0
4.209606875E0,1.147242188E0,9.615930557E0,1.531134605E0
