"Time (s)","Acceleration x (m/s^2)","Acceleration y (m/s^2)","Acceleration z (m/s^2)"
0.000000000E0,7.256379724E-1,9.247026443E0,5.809459209E0
2.000833000E-3,5.531635284E-1,9.079342842E0,5.847786903E0
4.002292000E-3,4.094347954E-1,8.940405846E0,5.890905380E0
6.004479000E-3,2.704970837E-1,8.806258202E0,5.934024334E0
8.007448000E-3,1.315593123E-1,8.700857162E0,5.981933594E0
1.001125000E-2,6.994426250E-3,8.605038643E0,6.015470505E0
1.201588500E-2,-9.840662777E-2,8.523591995E0,6.053798199E0
1.402072900E-2,-1.942257732E-1,8.437355042E0,6.092125893E0
1.602557300E-2,-2.756720185E-1,8.365490913E0,6.120871544E0
1.803119800E-2,-3.331634998E-1,8.322372437E0,6.140035152E0
2.003750000E-2,-3.954459429E-1,8.269671440E0,6.130453587E0
2.204437500E-2,-4.577284455E-1,8.236134529E0,6.135244370E0
2.405171900E-2,-4.864741564E-1,8.173851967E0,6.120871544E0
2.605906300E-2,-5.439656377E-1,8.125943184E0,6.106498718E0
2.806666700E-2,-5.631294847E-1,8.087615013E0,6.068171024E0
3.007437500E-2,-6.206209660E-1,8.068450928E0,5.996306419E0
3.208208300E-2,-6.302028894E-1,8.049287796E0,5.957978725E0
3.408666700E-2,-6.445757747E-1,7.991796017E0,5.876532555E0
3.609125000E-2,-6.493667364E-1,7.982213974E0,5.852577686E0
3.809583300E-2,-6.445757747E-1,7.963050365E0,5.775922298E0
4.010041700E-2,-6.110390425E-1,7.972631931E0,5.728013039E0
4.210500000E-2,-5.966661572E-1,7.953468323E0,5.656148434E0
4.410958300E-2,-5.822933316E-1,7.963050365E0,5.622612000E0
4.611416700E-2,-5.343837142E-1,7.967841148E0,5.541165829E0
4.811875000E-2,-5.056380033E-1,7.982213974E0,5.498046875E0
5.012333300E-2,-4.816831946E-1,7.977423191E0,5.450137615E0
5.212791700E-2,-4.385645986E-1,7.987004757E0,5.402227879E0
5.413250000E-2,-3.858640790E-1,7.996586800E0,5.339945316E0
5.613708300E-2,-3.331634998E-1,7.996586800E0,5.315990448E0
5.814166700E-2,-2.612991929E-1,8.006168365E0,5.277662754E0
6.014625000E-2,-2.277624756E-1,8.015750885E0,5.239335537E0
6.215083300E-2,-1.463162005E-1,8.039705276E0,5.210589409E0
6.415541700E-2,-8.882471919E-2,8.068450928E0,5.162680149E0
6.616000000E-2,-2.654226869E-2,8.073242188E0,5.143516064E0
6.816458300E-2,3.574017063E-2,8.106779099E0,5.129143238E0
7.016916700E-2,7.406783104E-2,8.140316010E0,5.062069893E0
7.217375000E-2,1.171864420E-1,8.159479141E0,5.023742199E0
7.417833300E-2,1.746779233E-1,8.197807312E0,4.985414505E0
7.618291700E-2,2.130055875E-1,8.236134529E0,4.951878071E0
7.818750000E-2,2.609151602E-1,8.260089874E0,4.932713985E0
8.019208300E-2,2.848699391E-1,8.298417091E0,4.894386292E0
8.219666700E-2,2.992427945E-1,8.312789917E0,4.870431423E0
8.420125000E-2,3.423614502E-1,8.355908394E0,4.851267815E0
8.620578100E-2,3.711071610E-1,8.365490913E0,4.841685772E0
8.821031300E-2,3.998529315E-1,8.370281219E0,4.832104206E0
9.021484400E-2,4.046438932E-1,8.394236565E0,4.827312946E0
9.221937500E-2,4.333896041E-1,8.403818130E0,4.803358078E0
9.422390600E-2,4.285986423E-1,8.418190956E0,4.784194469E0
9.622843800E-2,4.046438932E-1,8.432563782E0,4.793776512E0
9.823296900E-2,3.854800463E-1,8.422982216E0,4.784194469E0
1.002375000E-1,3.615252376E-1,8.418190956E0,4.779403687E0
1.022420310E-1,3.471523523E-1,8.427773476E0,4.788985252E0
1.042465630E-1,3.088247180E-1,8.422982216E0,4.784194469E0
1.062510940E-1,2.896609008E-1,8.456519127E0,4.793776512E0
1.082556250E-1,2.465422899E-1,8.451727867E0,4.808149338E0
1.102601560E-1,2.177965343E-1,8.470891953E0,4.798567295E0
1.122646880E-1,1.890507936E-1,8.485264778E0,4.793776512E0
1.142692190E-1,1.555140913E-1,8.504427910E0,4.832104206E0
1.162737500E-1,1.219773963E-1,8.533174515E0,4.836894989E0
1.182782810E-1,9.323165566E-2,8.523591995E0,4.875222683E0
1.202828130E-1,4.053112864E-2,8.542756081E0,4.903968334E0
1.222873440E-1,6.994426250E-3,8.542756081E0,4.937505245E0
1.242918750E-1,-3.133323044E-2,8.542756081E0,4.961459637E0
1.262964060E-1,-9.361566603E-2,8.537964821E0,4.985414505E0
1.283009380E-1,-1.415252388E-1,8.523591995E0,5.018951416E0
1.303054690E-1,-1.654800326E-1,8.518801689E0,5.062069893E0
1.323100000E-1,-2.277624756E-1,8.504427910E0,5.095606804E0
1.343145310E-1,-2.612991929E-1,8.504427910E0,5.114770412E0
1.363191150E-1,-3.139997125E-1,8.509219170E0,5.157888889E0
1.383236980E-1,-3.427454233E-1,8.504427910E0,5.196216583E0
1.403282810E-1,-3.906549811E-1,8.518801689E0,5.215380669E0
1.423328650E-1,-4.241917133E-1,8.523591995E0,5.253708363E0
1.443374480E-1,-4.289826751E-1,8.523591995E0,5.287244797E0
1.463420310E-1,-4.529374838E-1,8.552337646E0,5.296826839E0
1.483466150E-1,-4.816831946E-1,8.576292992E0,5.315990448E0
1.503511980E-1,-4.816831946E-1,8.590665817E0,5.349527359E0
1.523557810E-1,-5.104289651E-1,8.590665817E0,5.368690968E0
1.543603650E-1,-5.056380033E-1,8.619411469E0,5.397437096E0
1.563649480E-1,-5.343837142E-1,8.628993034E0,5.411809921E0
1.583695310E-1,-5.200108886E-1,8.624202728E0,5.426182747E0
1.603741150E-1,-5.104289651E-1,8.648157120E0,5.430973530E0
1.623786980E-1,-5.248018503E-1,8.633784294E0,5.450137615E0
1.643832810E-1,-5.008470416E-1,8.624202728E0,5.464510441E0
1.663878650E-1,-4.816831946E-1,8.624202728E0,5.474092007E0
1.683924480E-1,-4.768922329E-1,8.619411469E0,5.493256092E0
1.703970310E-1,-4.625194073E-1,8.614620209E0,5.507628918E0
1.724016150E-1,-4.194007516E-1,8.609828949E0,5.517210960E0
1.744061980E-1,-4.050278664E-1,8.585874557E0,5.522001743E0
1.764107810E-1,-3.667002320E-1,8.595456123E0,5.550747395E0
1.784153650E-1,-3.331634998E-1,8.590665817E0,5.565120220E0
1.804199480E-1,-3.092087507E-1,8.552337646E0,5.579493523E0
1.824245310E-1,-2.421353310E-1,8.557128906E0,5.603447914E0
1.844291150E-1,-1.990167350E-1,8.552337646E0,5.613029957E0
1.864336980E-1,-1.654800326E-1,8.504427910E0,5.617820740E0
1.884382810E-1,-1.415252388E-1,8.494846344E0,5.622612000E0
1.904428650E-1,-1.079885364E-1,8.480473518E0,5.636984825E0
1.924474480E-1,-7.924279571E-2,8.475682259E0,5.665730476E0
1.944520310E-1,-5.528801680E-2,8.437355042E0,5.646566868E0
1.964566150E-1,-3.133323044E-2,8.422982216E0,5.660939693E0
1.984611980E-1,2.203471959E-3,8.413399696E0,5.656148434E0
2.004657810E-1,1.657634228E-2,8.384654045E0,5.665730476E0
2.024703650E-1,5.011304095E-2,8.365490913E0,5.660939693E0
2.044749480E-1,7.406783104E-2,8.327162743E0,5.684894562E0
2.064795310E-1,5.969495699E-2,8.307998657E0,5.684894562E0
2.084841150E-1,8.844070137E-2,8.260089874E0,5.728013039E0
2.104886980E-1,9.802260995E-2,8.221761703E0,5.723221779E0
2.124932810E-1,1.219773963E-1,8.197807312E0,5.737595081E0
2.144978650E-1,1.219773963E-1,8.193016052E0,5.751967907E0
2.165024480E-1,1.171864420E-1,8.135524750E0,5.756758690E0
2.185070310E-1,1.315593123E-1,8.116360664E0,5.747176647E0
2.205116150E-1,1.123954803E-1,8.082823753E0,5.761549473E0
2.225161980E-1,1.171864420E-1,8.044496536E0,5.761549473E0
2.245207810E-1,1.076045260E-1,8.034914017E0,5.785504341E0
2.265253650E-1,1.028135717E-1,8.001378059E0,5.785504341E0
2.285299480E-1,1.076045260E-1,7.963050365E0,5.790295601E0
2.305345310E-1,1.028135717E-1,7.939095497E0,5.799877167E0
2.325391150E-1,6.448591501E-2,7.919931412E0,5.823832035E0
2.345436980E-1,7.406783104E-2,7.886394978E0,5.819041252E0
2.365482810E-1,4.532208294E-2,7.857649326E0,5.833414078E0
2.385528650E-1,3.574017063E-2,7.824112415E0,5.857368946E0
2.405574480E-1,-7.378444076E-3,7.804948807E0,5.857368946E0
2.425620310E-1,-2.175131440E-2,7.766621113E0,5.857368946E0
2.445666150E-1,-3.612418473E-2,7.752248287E0,5.881323814E0
2.465711980E-1,-7.924279571E-2,7.747457027E0,5.876532555E0
2.485757810E-1,-7.445184886E-2,7.737874985E0,5.890905380E0
2.505803650E-1,-1.031975895E-1,7.718711376E0,5.905278206E0
2.525849480E-1,-1.175704598E-1,7.709129333E0,5.895696640E0
2.545895310E-1,-1.367342919E-1,7.699547768E0,5.900487423E0
2.565941150E-1,-1.463162005E-1,7.694756508E0,5.910069466E0
2.585986980E-1,-1.702709794E-1,7.656428814E0,5.895696640E0
2.606032810E-1,-1.750619411E-1,7.661220074E0,5.890905380E0
2.626078650E-1,-1.894348115E-1,7.646847248E0,5.881323814E0
2.646124480E-1,-2.085986286E-1,7.637265205E0,5.862159729E0
2.666170310E-1,-2.133895904E-1,7.646847248E0,5.866950512E0
2.686216150E-1,-2.229715139E-1,7.651638031E0,5.857368946E0
2.706261980E-1,-2.373443693E-1,7.651638031E0,5.838204861E0
2.726307810E-1,-2.373443693E-1,7.661220074E0,5.833414078E0
2.746353650E-1,-2.660901546E-1,7.651638031E0,5.790295601E0
2.766399480E-1,-2.804629803E-1,7.680383682E0,5.771131516E0
2.786445310E-1,-2.852539420E-1,7.670801640E0,5.756758690E0
2.806491150E-1,-2.708810568E-1,7.675592899E0,5.756758690E0
2.826536980E-1,-2.756720185E-1,7.666010857E0,5.747176647E0
2.846582810E-1,-2.660901546E-1,7.642055988E0,5.732803822E0
2.866628650E-1,-2.708810568E-1,7.656428814E0,5.732803822E0
2.886674480E-1,-2.900449038E-1,7.637265205E0,5.742385864E0
2.906720310E-1,-2.804629803E-1,7.622892380E0,5.747176647E0
2.926766150E-1,-2.756720185E-1,7.632473946E0,5.713640213E0
2.946811980E-1,-2.708810568E-1,7.627683163E0,5.699267387E0
2.966857810E-1,-2.708810568E-1,7.613310337E0,5.704058170E0
2.986903650E-1,-2.660901546E-1,7.613310337E0,5.646566868E0
3.006949480E-1,-2.660901546E-1,7.613310337E0,5.665730476E0
3.026995310E-1,-2.660901546E-1,7.622892380E0,5.651357651E0
3.047041150E-1,-2.565082312E-1,7.622892380E0,5.646566868E0
3.067086980E-1,-2.660901546E-1,7.618101120E0,5.636984825E0
3.087132810E-1,-2.852539420E-1,7.618101120E0,5.627402782E0
3.107178650E-1,-2.996268272E-1,7.642055988E0,5.622612000E0
3.127224480E-1,-2.900449038E-1,7.651638031E0,5.589075089E0
3.147270310E-1,-2.996268272E-1,7.666010857E0,5.593866348E0
3.167316150E-1,-2.996268272E-1,7.661220074E0,5.574702263E0
3.187361980E-1,-3.044177890E-1,7.666010857E0,5.593866348E0
3.207407810E-1,-3.139997125E-1,7.689965725E0,5.598657131E0
3.227453650E-1,-3.187906742E-1,7.694756508E0,5.574702263E0
3.247499480E-1,-3.379544616E-1,7.713920593E0,5.550747395E0
3.267545310E-1,-3.283725977E-1,7.737874985E0,5.531583786E0
3.287591150E-1,-3.235816360E-1,7.728293419E0,5.541165829E0
3.307636980E-1,-3.044177890E-1,7.742666245E0,5.550747395E0
3.327682810E-1,-2.948358655E-1,7.742666245E0,5.565120220E0
3.347728650E-1,-2.996268272E-1,7.757039070E0,5.565120220E0
3.367774480E-1,-2.852539420E-1,7.737874985E0,5.574702263E0
3.387820310E-1,-2.804629803E-1,7.766621113E0,5.589075089E0
3.407866150E-1,-2.804629803E-1,7.766621113E0,5.589075089E0
3.427911980E-1,-2.756720185E-1,7.771411896E0,5.584284306E0
3.447957810E-1,-2.708810568E-1,7.757039070E0,5.593866348E0
3.468003650E-1,-2.612991929E-1,7.766621113E0,5.603447914E0
3.488049480E-1,-2.708810568E-1,7.761829853E0,5.603447914E0
3.508095310E-1,-2.517172694E-1,7.761829853E0,5.603447914E0
3.528141150E-1,-2.517172694E-1,7.752248287E0,5.636984825E0
3.548186980E-1,-2.565082312E-1,7.737874985E0,5.613029957E0
3.568232810E-1,-2.708810568E-1,7.742666245E0,5.627402782E0
3.588278650E-1,-2.708810568E-1,7.718711376E0,5.617820740E0
3.608324480E-1,-2.612991929E-1,7.709129333E0,5.622612000E0
3.628370310E-1,-2.708810568E-1,7.694756508E0,5.617820740E0
3.648416150E-1,-2.948358655E-1,7.680383682E0,5.603447914E0
3.668461980E-1,-2.900449038E-1,7.656428814E0,5.613029957E0
3.688507810E-1,-2.996268272E-1,7.646847248E0,5.608239174E0
3.708553650E-1,-2.996268272E-1,7.627683163E0,5.593866348E0
3.728599480E-1,-2.900449038E-1,7.618101120E0,5.608239174E0
3.748645310E-1,-2.900449038E-1,7.594146729E0,5.613029957E0
3.768691150E-1,-2.804629803E-1,7.574982643E0,5.608239174E0
3.788736980E-1,-2.900449038E-1,7.594146729E0,5.617820740E0
3.808782810E-1,-2.852539420E-1,7.579773426E0,5.632194042E0
3.828828650E-1,-2.948358655E-1,7.570191860E0,5.622612000E0
3.848874480E-1,-2.565082312E-1,7.565400600E0,5.622612000E0
3.868920310E-1,-2.373443693E-1,7.574982643E0,5.622612000E0
3.888966150E-1,-2.181805521E-1,7.574982643E0,5.598657131E0
3.909011980E-1,-1.750619411E-1,7.574982643E0,5.603447914E0
3.929057810E-1,-1.750619411E-1,7.584564686E0,5.598657131E0
3.949103650E-1,-1.511071622E-1,7.589355469E0,5.593866348E0
3.969149480E-1,-1.271523684E-1,7.603728294E0,5.593866348E0
3.989195310E-1,-1.031975895E-1,7.603728294E0,5.593866348E0
4.009241150E-1,-7.445184886E-2,7.598937511E0,5.589075089E0
4.029286980E-1,-6.486992538E-2,7.603728294E0,5.579493523E0
4.049332810E-1,-5.528801680E-2,7.608519554E0,5.569911480E0
4.069378650E-1,-5.528801680E-2,7.632473946E0,5.555538654E0
4.089424480E-1,-4.091514647E-2,7.622892380E0,5.560329437E0
4.109470310E-1,-2.654226869E-2,7.632473946E0,5.565120220E0
4.129516150E-1,-1.696036011E-2,7.632473946E0,5.555538654E0
4.149561980E-1,2.136730030E-2,7.646847248E0,5.555538654E0
4.169607810E-1,1.178538427E-2,7.666010857E0,5.565120220E0
4.189653650E-1,1.178538427E-2,7.666010857E0,5.536374569E0
4.209699480E-1,-2.587486058E-3,7.670801640E0,5.541165829E0
4.229745310E-1,6.994426250E-3,7.670801640E0,5.550747395E0
4.249791150E-1,2.615825646E-2,7.666010857E0,5.541165829E0
4.269836980E-1,3.094921261E-2,7.670801640E0,5.536374569E0
4.289882810E-1,3.574017063E-2,7.675592899E0,5.536374569E0
4.309928650E-1,4.053112864E-2,7.670801640E0,5.545956612E0
4.329974480E-1,2.615825646E-2,7.675592899E0,5.550747395E0
4.350020310E-1,4.053112864E-2,7.661220074E0,5.545956612E0
4.370066150E-1,6.448591501E-2,7.661220074E0,5.550747395E0
4.390111980E-1,4.532208294E-2,7.666010857E0,5.555538654E0
4.410157810E-1,4.532208294E-2,7.656428814E0,5.550747395E0
4.430203650E-1,6.448591501E-2,7.666010857E0,5.555538654E0
4.450249480E-1,6.448591501E-2,7.675592899E0,5.565120220E0
4.470295310E-1,4.053112864E-2,7.666010857E0,5.569911480E0
4.490341150E-1,6.448591501E-2,7.656428814E0,5.569911480E0
4.510386980E-1,7.885878533E-2,7.661220074E0,5.569911480E0
4.530432810E-1,5.969495699E-2,7.675592899E0,5.565120220E0
4.550478650E-1,7.406783104E-2,7.675592899E0,5.565120220E0
4.570524480E-1,7.406783104E-2,7.666010857E0,5.565120220E0
4.590570310E-1,5.969495699E-2,7.656428814E0,5.555538654E0
4.610616150E-1,6.448591501E-2,7.646847248E0,5.569911480E0
4.630661980E-1,5.969495699E-2,7.627683163E0,5.589075089E0
4.650707810E-1,8.364973962E-2,7.603728294E0,5.579493523E0
4.670753650E-1,9.323165566E-2,7.584564686E0,5.603447914E0
4.690799480E-1,7.885878533E-2,7.551027775E0,5.613029957E0
4.710845310E-1,1.076045260E-1,7.551027775E0,5.636984825E0
4.730891150E-1,1.363502741E-1,7.555819035E0,5.636984825E0
4.750936980E-1,1.842598468E-1,7.546236992E0,5.660939693E0
4.770982810E-1,2.130055875E-1,7.551027775E0,5.636984825E0
4.791028650E-1,2.273784578E-1,7.522282124E0,5.641775608E0
4.811074480E-1,2.657061219E-1,7.536654949E0,5.656148434E0
4.831120310E-1,2.992427945E-1,7.541445732E0,5.646566868E0
4.851166150E-1,3.136156797E-1,7.555819035E0,5.646566868E0
4.871211980E-1,3.136156797E-1,7.574982643E0,5.670521259E0
4.891257810E-1,3.567342758E-1,7.589355469E0,5.660939693E0
4.911303650E-1,3.663161993E-1,7.598937511E0,5.646566868E0
4.931349480E-1,3.902710080E-1,7.618101120E0,5.665730476E0
4.951395310E-1,4.094347954E-1,7.622892380E0,5.651357651E0
4.971441150E-1,4.285986423E-1,7.646847248E0,5.665730476E0
4.991486980E-1,4.333896041E-1,7.651638031E0,5.689685345E0
5.011532810E-1,4.525534511E-1,7.661220074E0,5.694476128E0
5.031578650E-1,4.573444128E-1,7.642055988E0,5.684894562E0
5.051624480E-1,4.381805658E-1,7.670801640E0,5.689685345E0
5.071670310E-1,4.573444128E-1,7.685174465E0,5.718430996E0
5.091716150E-1,4.621353745E-1,7.709129333E0,5.723221779E0
5.111761980E-1,5.100449324E-1,7.713920593E0,5.732803822E0
5.131807810E-1,5.435816050E-1,7.737874985E0,5.771131516E0
5.151853650E-1,5.723273754E-1,7.795366764E0,5.756758690E0
5.171899480E-1,6.202369332E-1,7.824112415E0,5.761549473E0
5.191945310E-1,6.729374528E-1,7.848067284E0,5.751967907E0
5.211991150E-1,7.064741254E-1,7.915140629E0,5.747176647E0
5.232036980E-1,7.687565684E-1,7.963050365E0,5.732803822E0
5.252082810E-1,8.406209350E-1,8.025332451E0,5.747176647E0
5.272128650E-1,9.172762632E-1,8.078033447E0,5.732803822E0
5.292174480E-1,9.460219741E-1,8.130733490E0,5.732803822E0
5.312220310E-1,9.987225533E-1,8.188224792E0,5.723221779E0
5.332266150E-1,1.041841149E0,8.221761703E0,5.704058170E0
5.352311980E-1,1.061004996E0,8.269671440E0,5.689685345E0
5.372357810E-1,1.065795898E0,8.322372437E0,5.689685345E0
5.392403650E-1,1.099332571E0,8.360699654E0,5.699267387E0
5.412449480E-1,1.099332571E0,8.408609390E0,5.708848953E0
5.432495310E-1,1.142451286E0,8.418190956E0,5.694476128E0
5.452541150E-1,1.175987959E0,8.437355042E0,5.680103302E0
5.472586980E-1,1.156824112E0,8.475682259E0,5.665730476E0
5.492632810E-1,1.152033210E0,8.504427910E0,5.651357651E0
5.512678650E-1,1.171196938E0,8.509219170E0,5.646566868E0
5.532724480E-1,1.175987959E0,8.480473518E0,5.627402782E0
5.552770310E-1,1.147242188E0,8.504427910E0,5.641775608E0
5.572816150E-1,1.137660265E0,8.490055084E0,5.641775608E0
5.592861980E-1,1.113705516E0,8.442146301E0,5.617820740E0
5.612907810E-1,1.094541669E0,8.379863739E0,5.622612000E0
5.632953650E-1,1.051423073E0,8.322372437E0,5.636984825E0
5.652999480E-1,1.032259226E0,8.260089874E0,5.646566868E0
5.673045310E-1,9.843496680E-1,8.193016052E0,5.656148434E0
5.693091150E-1,9.364401102E-1,8.149897575E0,5.680103302E0
5.713136980E-1,8.933214545E-1,8.068450928E0,5.684894562E0
5.733182810E-1,8.214571476E-1,8.025332451E0,5.718430996E0
5.753228650E-1,8.118752241E-1,7.958259106E0,5.747176647E0
5.773274480E-1,7.783384919E-1,7.886394978E0,5.799877167E0
5.793320310E-1,7.160560489E-1,7.862440109E0,5.785504341E0
5.813366150E-1,6.825193763E-1,7.838485241E0,5.828622818E0
5.833411980E-1,6.298188567E-1,7.828903198E0,5.833414078E0
5.853457810E-1,5.819092393E-1,7.776202679E0,5.862159729E0
5.873503650E-1,5.771182775E-1,7.771411896E0,5.852577686E0
5.893549480E-1,5.723273754E-1,7.733084202E0,5.876532555E0
5.913595310E-1,5.819092393E-1,7.709129333E0,5.871741772E0
5.933641150E-1,5.867002010E-1,7.699547768E0,5.833414078E0
5.953686980E-1,5.771182775E-1,7.713920593E0,5.814249992E0
5.973732810E-1,5.867002010E-1,7.704338551E0,5.819041252E0
5.993778650E-1,5.962821245E-1,7.718711376E0,5.795086384E0
6.013824480E-1,6.777284145E-1,7.689965725E0,5.790295601E0
6.033870310E-1,6.777284145E-1,7.723502159E0,5.756758690E0
6.053916150E-1,7.400108576E-1,7.709129333E0,5.751967907E0
6.073961980E-1,7.831294537E-1,7.733084202E0,5.723221779E0
6.094007810E-1,8.645757437E-1,7.737874985E0,5.704058170E0
6.114053650E-1,9.124853015E-1,7.742666245E0,5.718430996E0
6.134099480E-1,9.603948593E-1,7.800157547E0,5.675312519E0
6.154145310E-1,1.027468324E0,7.824112415E0,5.613029957E0
6.174191150E-1,1.128078341E0,7.809739590E0,5.603447914E0
6.194236980E-1,1.204733729E0,7.833694458E0,5.608239174E0
6.214282810E-1,1.267016172E0,7.862440109E0,5.584284306E0
6.234328650E-1,1.324507594E0,7.886394978E0,5.550747395E0
6.254374480E-1,1.420326710E0,7.900767803E0,5.526792526E0
6.274420310E-1,1.473027229E0,7.910349846E0,5.522001743E0
6.294466150E-1,1.535309672E0,7.934304237E0,5.483674049E0
6.314511980E-1,1.621546984E0,7.919931412E0,5.459719181E0
6.334557810E-1,1.693411350E0,7.910349846E0,5.459719181E0
6.354603650E-1,1.770066619E0,7.876812935E0,5.469301224E0
6.374649480E-1,1.822767138E0,7.881603718E0,5.464510441E0
6.394695310E-1,1.880258679E0,7.843276501E0,5.426182747E0
6.414741150E-1,1.923377275E0,7.848067284E0,5.421391487E0
6.434786980E-1,1.966495872E0,7.867230892E0,5.426182747E0
6.454832810E-1,2.014405489E0,7.843276501E0,5.421391487E0
6.474878650E-1,2.095851660E0,7.828903198E0,5.430973530E0
6.494924480E-1,2.124597549E0,7.809739590E0,5.435764790E0
6.514970310E-1,2.182088852E0,7.776202679E0,5.421391487E0
6.535016150E-1,2.210834742E0,7.776202679E0,5.430973530E0
6.555061980E-1,2.268326044E0,7.752248287E0,5.450137615E0
6.575107810E-1,2.316235781E0,7.728293419E0,5.459719181E0
6.595153650E-1,2.344981432E0,7.713920593E0,5.464510441E0
6.615199480E-1,2.354563475E0,7.689965725E0,5.474092007E0
6.635245310E-1,2.392890930E0,7.685174465E0,5.478883266E0
6.655291150E-1,2.383309126E0,7.694756508E0,5.459719181E0
6.675336980E-1,2.388100147E0,7.661220074E0,5.483674049E0
6.695382810E-1,2.388100147E0,7.656428814E0,5.493256092E0
6.715428650E-1,2.373727322E0,7.675592899E0,5.483674049E0
6.735474480E-1,2.368936300E0,7.661220074E0,5.498046875E0
6.755520310E-1,2.402472973E0,7.642055988E0,5.555538654E0
6.775566150E-1,2.392890930E0,7.598937511E0,5.579493523E0
6.795611980E-1,2.373727322E0,7.618101120E0,5.593866348E0
6.815657810E-1,2.354563475E0,7.570191860E0,5.627402782E0
6.835703650E-1,2.273117065E0,7.603728294E0,5.641775608E0
6.855749480E-1,2.249162436E0,7.589355469E0,5.689685345E0
6.875795310E-1,2.244371414E0,7.551027775E0,5.728013039E0
6.895841150E-1,2.186879873E0,7.541445732E0,5.732803822E0
6.915886980E-1,2.148552179E0,7.555819035E0,5.761549473E0
6.935932810E-1,2.115015507E0,7.555819035E0,5.771131516E0
6.955978650E-1,2.076687813E0,7.546236992E0,5.775922298E0
6.976024480E-1,2.009614468E0,7.541445732E0,5.804668427E0
6.996070310E-1,2.009614468E0,7.551027775E0,5.847786903E0
7.016116150E-1,1.961704850E0,7.517491341E0,5.857368946E0
7.036161980E-1,1.932959199E0,7.512700081E0,5.838204861E0
7.056207810E-1,1.880258679E0,7.488745213E0,5.871741772E0
7.076253650E-1,1.856303811E0,7.455208778E0,5.886114597E0
7.096299480E-1,1.808394313E0,7.459999561E0,5.910069466E0
7.116345310E-1,1.779648542E0,7.459999561E0,5.919651031E0
7.136391150E-1,1.774857521E0,7.450417995E0,5.919651031E0
7.156436980E-1,1.741320848E0,7.436044693E0,5.948397160E0
7.176482810E-1,1.760484695E0,7.378553391E0,5.938815117E0
7.196528650E-1,1.746111870E0,7.349807739E0,5.962769985E0
7.216574480E-1,1.726948023E0,7.321062088E0,5.943605900E0
7.236620310E-1,1.726948023E0,7.306689262E0,5.938815117E0
7.256666150E-1,1.702993274E0,7.306689262E0,5.948397160E0
7.276711980E-1,1.722157001E0,7.287525177E0,5.938815117E0
7.296757810E-1,1.702993274E0,7.277943134E0,5.943605900E0
7.316803650E-1,1.698202252E0,7.258779526E0,5.957978725E0
7.336849480E-1,1.722157001E0,7.263570309E0,5.934024334E0
7.356895310E-1,1.741320848E0,7.225242615E0,5.957978725E0
7.376941150E-1,1.760484695E0,7.210869789E0,5.900487423E0
7.396986980E-1,1.784439445E0,7.172542095E0,5.924442291E0
7.417032810E-1,1.789230466E0,7.153378487E0,5.938815117E0
7.437078650E-1,1.822767138E0,7.129423618E0,5.929233074E0
7.457124480E-1,1.822767138E0,7.129423618E0,5.910069466E0
7.477170310E-1,1.822767138E0,7.115050793E0,5.910069466E0
7.497216150E-1,1.832349062E0,7.095887184E0,5.905278206E0
7.517261980E-1,1.861094832E0,7.076723099E0,5.900487423E0
7.537307810E-1,1.865885735E0,7.067141056E0,5.886114597E0
7.557353650E-1,1.865885735E0,7.071932316E0,5.881323814E0
7.577399480E-1,1.894631505E0,7.047977448E0,5.876532555E0
7.597445310E-1,1.942541122E0,7.043186665E0,5.871741772E0
7.617491150E-1,1.961704850E0,7.047977448E0,5.857368946E0
7.637536980E-1,2.014405489E0,7.038395405E0,5.862159729E0
7.657582810E-1,2.047942162E0,7.047977448E0,5.881323814E0
7.677628650E-1,2.081478834E0,7.057559490E0,5.886114597E0
7.697674480E-1,2.062314987E0,7.047977448E0,5.890905380E0
7.717720310E-1,2.091060638E0,7.047977448E0,5.905278206E0
7.737766150E-1,2.119806528E0,7.062350273E0,5.929233074E0
7.757811980E-1,2.119806528E0,7.081513882E0,5.866950512E0
7.777857810E-1,2.186879873E0,7.091095924E0,5.857368946E0
7.797903650E-1,2.215625525E0,7.091095924E0,5.871741772E0
7.817949480E-1,2.258744240E0,7.124632835E0,5.890905380E0
7.837995310E-1,2.287489891E0,7.124632835E0,5.862159729E0
7.858041150E-1,2.330608606E0,7.129423618E0,5.842996120E0
7.878086980E-1,2.359354258E0,7.124632835E0,5.838204861E0
7.898132810E-1,2.378518105E0,7.143796444E0,5.828622818E0
7.918178650E-1,2.431218624E0,7.134214401E0,5.876532555E0
7.938224480E-1,2.493501186E0,7.091095924E0,5.895696640E0
7.958270310E-1,2.536619663E0,7.047977448E0,5.886114597E0
7.978316150E-1,2.522246838E0,7.033604622E0,5.895696640E0
7.998361980E-1,2.579738379E0,7.004858971E0,5.876532555E0
8.018407810E-1,2.632438898E0,6.952158451E0,5.866950512E0
8.038453650E-1,2.632438898E0,6.928203583E0,5.847786903E0
8.058499480E-1,2.656393766E0,6.899457932E0,5.799877167E0
8.078545310E-1,2.651602745E0,6.889875889E0,5.713640213E0
8.098591150E-1,2.680348396E0,6.894666672E0,5.651357651E0
8.118636980E-1,2.680348396E0,6.885084629E0,5.584284306E0
8.138682810E-1,2.733048916E0,6.841966152E0,5.569911480E0
8.158728650E-1,2.780958652E0,6.803638458E0,5.545956612E0
8.178774480E-1,2.795331478E0,6.755729198E0,5.474092007E0
8.198820310E-1,2.824077129E0,6.750937939E0,5.416600704E0
8.218866150E-1,2.814495325E0,6.760519981E0,5.373482227E0
8.238911980E-1,2.833659172E0,6.722192287E0,5.253708363E0
8.258957810E-1,2.857613802E0,6.688655376E0,5.263289928E0
8.279003650E-1,2.891150475E0,6.635954857E0,5.220171452E0
8.299049480E-1,2.924687386E0,6.578463554E0,5.229753494E0
8.319095310E-1,2.881568670E0,6.597627640E0,5.153098106E0
8.339141150E-1,2.771376610E0,6.540135860E0,5.162680149E0
8.359186980E-1,2.804913282E0,6.482644558E0,5.028533459E0
8.379232810E-1,2.862404823E0,6.492226601E0,4.980623722E0
8.399278650E-1,2.843240976E0,6.549717903E0,4.913550377E0
8.419324480E-1,2.843240976E0,6.597627640E0,4.889595509E0
8.439370310E-1,2.876777649E0,6.578463554E0,4.832104206E0
8.459416150E-1,2.943850994E0,6.607209206E0,4.798567295E0
8.479461980E-1,2.963014841E0,6.626373291E0,4.731493950E0
8.499507810E-1,3.030088425E0,6.650328159E0,4.717121124E0
8.519553650E-1,3.044461250E0,6.669491768E0,4.712329865E0
8.539605210E-1,3.111534595E0,6.669491768E0,4.650047779E0
8.559655210E-1,3.154653311E0,6.664700985E0,4.549437523E0
8.579701040E-1,3.154653311E0,6.726983070E0,4.606928825E0
8.599746880E-1,3.169026136E0,6.750937939E0,4.616510868E0
8.619792710E-1,3.207353830E0,6.746147156E0,4.544646740E0
8.639838540E-1,3.216935635E0,6.765310764E0,4.559019566E0
8.659884380E-1,3.255263329E0,6.731774330E0,4.578183174E0
8.679930210E-1,3.130698442E0,6.669491768E0,4.559019566E0
8.699976040E-1,2.895941496E0,6.559299946E0,4.396126747E0
8.720021880E-1,2.953433037E0,6.583254337E0,4.544646740E0
8.740067710E-1,2.972596884E0,6.588045597E0,4.568601131E0
8.760113540E-1,3.068415880E0,6.602418423E0,4.726702690E0
8.780159380E-1,3.178607941E0,6.631164074E0,4.784194469E0
8.800205210E-1,3.250472307E0,6.549717903E0,5.038115025E0
8.820251040E-1,3.375037193E0,6.463480473E0,5.531583786E0
8.840296880E-1,3.413364887E0,6.650328159E0,5.062069893E0
8.860342710E-1,3.437319756E0,6.650328159E0,5.105188370E0
8.880388540E-1,3.418155909E0,6.741356373E0,4.937505245E0
8.900434380E-1,3.432528734E0,6.822802544E0,4.822522163E0
8.920480210E-1,3.379828215E0,6.976112843E0,4.501527786E0
8.940488020E-1,3.398992062E0,6.995276928E0,4.755448818E0
8.960495830E-1,3.303172827E0,7.071932316E0,4.702748299E0
8.980507810E-1,3.111534595E0,7.105468750E0,4.568601131E0
9.000525520E-1,3.173817158E0,7.206079006E0,4.717121124E0
9.020549480E-1,3.207353830E0,7.335434914E0,4.678793430E0
9.040580210E-1,3.293591022E0,7.412090302E0,4.707539082E0
9.060618230E-1,3.355873346E0,7.507909298E0,4.697957039E0
9.080663540E-1,3.327127695E0,7.642055988E0,4.707539082E0
9.100716150E-1,3.370246172E0,7.728293419E0,4.578183174E0
9.120775520E-1,3.346291542E0,7.857649326E0,4.439245701E0
9.140840630E-1,3.375037193E0,7.943886280E0,4.314680576E0
9.160910420E-1,3.394201040E0,7.982213974E0,4.271562099E0
9.180983850E-1,3.365455389E0,8.135524750E0,4.271562099E0
9.201059380E-1,3.442110538E0,8.116360664E0,4.218861580E0
9.221135940E-1,3.446901560E0,8.169061661E0,4.233234406E0
9.241212500E-1,3.413364887E0,8.260089874E0,4.233234406E0
9.261259380E-1,3.403783083E0,8.264880180E0,4.146996975E0
9.281305210E-1,3.408573866E0,8.240925789E0,4.123042107E0
9.301351040E-1,3.365455389E0,8.298417091E0,4.022432327E0
9.321396880E-1,3.370246172E0,8.264880180E0,3.974522591E0
9.341442710E-1,3.355873346E0,8.293625832E0,3.974522591E0
9.361488540E-1,3.293591022E0,8.322372437E0,3.907449245E0
9.381534380E-1,3.298382044E0,8.288835526E0,3.931404114E0
9.401580210E-1,3.327127695E0,8.264880180E0,3.936194897E0
9.421626040E-1,3.370246172E0,8.202597618E0,3.931404114E0
9.441671880E-1,3.408573866E0,8.159479141E0,3.912240267E0
9.461717710E-1,3.427737713E0,8.106779099E0,3.883494377E0
9.481763540E-1,3.408573866E0,8.078033447E0,3.869121552E0
9.501809380E-1,3.398992062E0,8.020542145E0,3.854748726E0
9.521855210E-1,3.418155909E0,7.963050365E0,3.902658224E0
9.541901040E-1,3.422946930E0,7.872022152E0,3.912240267E0
9.561946880E-1,3.446901560E0,7.809739590E0,3.926613092E0
9.581992710E-1,3.446901560E0,7.747457027E0,3.940985918E0
9.602038540E-1,3.446901560E0,7.694756508E0,3.974522591E0
9.622084380E-1,3.413364887E0,7.637265205E0,4.017641068E0
9.642130210E-1,3.384619236E0,7.589355469E0,4.051177979E0
9.662176040E-1,3.331918716E0,7.555819035E0,4.070341587E0
9.682221880E-1,3.284008980E0,7.546236992E0,4.094296455E0
9.702267710E-1,3.207353830E0,7.507909298E0,4.108669281E0
9.722313540E-1,3.140280247E0,7.474372387E0,4.108669281E0
9.742359380E-1,3.082788944E0,7.459999561E0,4.127833366E0
9.762405210E-1,3.015715361E0,7.436044693E0,4.156579018E0
9.782451040E-1,2.977387905E0,7.392926216E0,4.156579018E0
9.802496880E-1,2.881568670E0,7.397717476E0,4.146996975E0
9.822542710E-1,2.785749435E0,7.416881084E0,4.113460064E0
9.842588540E-1,2.704303265E0,7.421671867E0,4.127833366E0
9.862634380E-1,2.613275051E0,7.450417995E0,4.089505672E0
9.882680210E-1,2.517455816E0,7.474372387E0,4.046386719E0
9.902726040E-1,2.416845798E0,7.512700081E0,4.017641068E0
9.922771880E-1,2.354563475E0,7.551027775E0,4.012850285E0
9.942817710E-1,2.273117065E0,7.589355469E0,3.974522591E0
9.962863540E-1,2.225207567E0,7.632473946E0,3.888285398E0
9.982909380E-1,2.177298069E0,7.689965725E0,3.878703594E0
1.000295521E0,2.095851660E0,7.771411896E0,3.864330769E0
1.002300104E0,2.014405489E0,7.852858067E0,3.792466402E0
1.004304688E0,2.000032663E0,7.915140629E0,3.739765882E0
1.006309271E0,1.976077795E0,7.991796017E0,3.634364605E0
1.008313854E0,1.976077795E0,8.063660622E0,3.533754587E0
1.010318438E0,1.971286774E0,8.178643227E0,3.548127413E0
1.012323021E0,1.942541122E0,8.317581177E0,3.562500238E0
1.014327604E0,1.942541122E0,8.461309433E0,3.509799719E0
1.016332188E0,2.000032663E0,8.523591995E0,3.418771744E0
1.018336771E0,2.023987293E0,8.633784294E0,3.322952509E0
1.020341354E0,2.110224485E0,8.710439682E0,3.217551470E0
1.022345938E0,2.177298069E0,8.753558159E0,3.102568388E0
1.024350521E0,2.287489891E0,8.801467896E0,2.987585545E0
1.026355104E0,2.431218624E0,8.791885376E0,2.920512199E0
1.028359688E0,2.479128361E0,8.868540764E0,2.863020658E0
1.030364271E0,2.531828880E0,8.930823326E0,2.781574249E0
1.032368854E0,2.618066072E0,8.959568977E0,2.700128078E0
1.034373438E0,2.699512243E0,9.026642799E0,2.618681908E0
1.036378021E0,2.747421980E0,9.069761276E0,2.498907804E0
1.038382604E0,2.900732517E0,9.045806885E0,2.355179071E0
1.040387188E0,2.996551752E0,9.045806885E0,2.297687769E0
1.042391771E0,3.092370749E0,9.098506927E0,2.201868534E0
1.044396354E0,3.169026136E0,9.093715668E0,2.177913666E0
1.046400938E0,3.322336674E0,9.026642799E0,2.077303648E0
1.048405521E0,3.437319756E0,8.997897148E0,1.981484532E0
1.050410104E0,3.470856428E0,8.959568977E0,1.919202089E0
1.052414688E0,3.504393101E0,8.973941803E0,1.837755799E0
1.054419271E0,3.581048489E0,8.964360237E0,1.794637203E0
1.056423854E0,3.614585161E0,8.983524323E0,1.713190913E0
1.058428438E0,3.676867485E0,8.969151497E0,1.679654241E0
1.060433021E0,3.672076702E0,8.940405846E0,1.607789874E0
1.062437604E0,3.743940830E0,8.964360237E0,1.593417048E0
1.064442188E0,3.834969044E0,8.916450500E0,1.555089355E0
1.066446771E0,3.921206236E0,8.897286415E0,1.526343584E0
1.068451354E0,3.954743147E0,8.921241760E0,1.502388835E0
1.070455938E0,4.069725990E0,8.863750458E0,1.483224988E0
1.072460521E0,4.132008553E0,8.868540764E0,1.435315371E0
1.074465104E0,4.170336246E0,8.911659241E0,1.392196774E0
1.076469688E0,4.179917812E0,8.988314629E0,1.373032928E0
1.078474271E0,4.227827549E0,9.036224365E0,1.387405872E0
1.080478854E0,4.280528069E0,9.069761276E0,1.358660102E0
1.082483438E0,4.318855762E0,9.151207924E0,1.344287276E0
1.084488021E0,4.405093193E0,9.218280792E0,1.363451004E0
1.086492604E0,4.491330147E0,9.208699226E0,1.396987796E0
1.088497188E0,4.572776318E0,9.237444878E0,1.377823949E0
1.090501771E0,4.635058880E0,9.275772095E0,1.382614851E0
1.092506354E0,4.788369656E0,9.242236137E0,1.459270239E0
1.094510938E0,4.960844040E0,9.199116707E0,1.449688315E0
1.096515521E0,5.013544559E0,9.227863312E0,1.440106392E0
1.098520104E0,5.142900467E0,9.194326401E0,1.444897294E0
1.100524688E0,5.209973812E0,9.213489532E0,1.464061141E0
1.102529271E0,5.248301506E0,9.170371056E0,1.444897294E0
1.104533854E0,5.320165634E0,9.146416664E0,1.401778698E0
1.106538438E0,5.377657413E0,9.122462273E0,1.396987796E0
1.108543021E0,5.478267193E0,9.079342842E0,1.430524468E0
1.110547604E0,5.588459492E0,9.026642799E0,1.440106392E0
1.112552188E0,5.669905663E0,9.041015625E0,1.444897294E0
1.114556771E0,5.660323620E0,8.993105888E0,1.353869081E0
1.116561354E0,5.660323620E0,8.978733063E0,1.315541506E0
1.118565938E0,5.736979008E0,8.930823326E0,1.234095216E0
1.120570521E0,5.808843613E0,8.921241760E0,1.162230849E0
1.122575104E0,5.919035435E0,8.892496109E0,1.109530330E0
1.124579688E0,5.957363129E0,8.868540764E0,1.128694177E0
1.126584271E0,6.029227257E0,8.844586372E0,1.138275981E0
1.128588854E0,6.077136993E0,8.839795113E0,1.123903155E0
1.130593438E0,6.115464687E0,8.815840721E0,1.143067002E0
1.132598021E0,6.177747250E0,8.758349419E0,1.085575461E0
1.134602604E0,6.244820595E0,8.720021248E0,1.085575461E0
1.136607188E0,6.268775463E0,8.700857162E0,1.018502116E0
1.138611771E0,6.369385242E0,8.700857162E0,9.753834605E-1
1.140616354E0,6.417294979E0,8.700857162E0,9.418467879E-1
1.142620938E0,6.508323193E0,8.648157120E0,8.987281322E-1
1.144625521E0,6.527486801E0,8.652948380E0,7.597904205E-1
1.146630104E0,6.618515015E0,8.614620209E0,6.879260540E-1
1.148634688E0,6.642469883E0,8.638575554E0,7.214627862E-1
1.150639271E0,6.680797577E0,8.614620209E0,6.352255344E-1
1.152643854E0,6.709543228E0,8.619411469E0,6.495984197E-1
1.154648438E0,6.800571442E0,8.633784294E0,6.831350923E-1
1.156653021E0,6.858063221E0,8.662529945E0,6.927170157E-1
1.158657604E0,6.934718132E0,8.710439682E0,7.645813823E-1
1.160662188E0,6.929927349E0,8.782303810E0,7.837451696E-1
1.162666771E0,6.934718132E0,8.882913589E0,5.921069384E-1
1.164671354E0,6.982627869E0,8.921241760E0,5.202425718E-1
1.166675938E0,6.987418652E0,8.993105888E0,7.070899010E-1
1.168680521E0,6.992209911E0,9.069761276E0,7.454175353E-1
1.170685104E0,7.083238125E0,9.079342842E0,7.741632462E-1
1.172689688E0,7.131147385E0,9.122462273E0,7.645813823E-1
1.174694271E0,7.155102253E0,9.160789490E0,8.076999784E-1
1.176698854E0,7.140729427E0,9.199116707E0,9.418467879E-1
1.178703438E0,7.121565819E0,9.227863312E0,8.843553066E-1
1.180708021E0,7.164684296E0,9.194326401E0,8.939371705E-1
1.182712604E0,7.198221207E0,9.179953575E0,1.008920193E0
1.184717188E0,7.145520687E0,9.184743881E0,1.176603675E0
1.186721771E0,7.092820168E0,9.146416664E0,1.214931369E0
1.188726354E0,7.049701214E0,9.136835098E0,1.162230849E0
1.190730938E0,7.040119648E0,9.069761276E0,1.186185598E0
1.192735521E0,6.968255043E0,9.060179710E0,1.224513292E0
1.194740104E0,6.877226830E0,9.002687454E0,1.320332408E0
1.196744688E0,6.786198616E0,8.988314629E0,1.368242025E0
1.198749271E0,6.699961662E0,8.940405846E0,1.435315371E0
1.200753854E0,6.584978580E0,8.926033020E0,1.464061141E0
1.202758438E0,6.484368324E0,8.916450500E0,1.526343584E0
1.204763021E0,6.355012417E0,8.897286415E0,1.617371798E0
1.206767604E0,6.259193420E0,8.887704849E0,1.650908470E0
1.208772188E0,6.149001598E0,8.858959198E0,1.674863219E0
1.210776771E0,6.062764168E0,8.854167938E0,1.703608990E0
1.212781354E0,5.976526737E0,8.858959198E0,1.703608990E0
1.214785938E0,5.885498524E0,8.887704849E0,1.785055280E0
1.216790521E0,5.780097485E0,8.911659241E0,1.818591952E0
1.218795104E0,5.713024139E0,8.916450500E0,1.866501570E0
1.220799688E0,5.626787186E0,8.959568977E0,1.847337723E0
1.222804271E0,5.564504623E0,8.993105888E0,1.842546701E0
1.224808854E0,5.502222061E0,9.021851540E0,1.861710548E0
1.226813438E0,5.454312801E0,9.060179710E0,1.895247340E0
1.228818021E0,5.387239456E0,9.093715668E0,1.885665417E0
1.230822604E0,5.315374851E0,9.160789490E0,1.861710548E0
1.232827188E0,5.310584068E0,9.184743881E0,1.847337723E0
1.234831771E0,5.248301506E0,9.247026443E0,1.847337723E0
1.236836354E0,5.181228161E0,9.309309006E0,1.861710548E0
1.238840938E0,5.157273293E0,9.376382828E0,1.866501570E0
1.240845521E0,5.114154816E0,9.433874130E0,1.832964897E0
1.242850104E0,5.071035862E0,9.500946999E0,1.818591952E0
1.244854688E0,5.047081470E0,9.534483910E0,1.780264378E0
1.246859271E0,5.013544559E0,9.601557732E0,1.756309509E0
1.248863854E0,4.989589691E0,9.649467468E0,1.732354760E0
1.250868438E0,4.946471214E0,9.730913162E0,1.703608990E0
1.252873021E0,4.893770695E0,9.788404465E0,1.646117568E0
1.254877604E0,4.836279392E0,9.860269547E0,1.622162700E0
1.256882188E0,4.807533264E0,9.936924934E0,1.598207951E0
1.258886771E0,4.745251179E0,9.980043411E0,1.545507431E0
1.260891354E0,4.721296310E0,1.002795315E1,1.516761661E0
1.262895938E0,4.716505051E0,1.007107162E1,1.488015890E0
1.264900521E0,4.673386574E0,1.009981728E1,1.473643064E0
1.266905104E0,4.635058880E0,1.013814449E1,1.430524468E0
1.268909688E0,4.596731186E0,1.015730858E1,1.382614851E0
1.270914271E0,4.558403492E0,1.019563580E1,1.344287276E0
1.272918854E0,4.534448624E0,1.020042706E1,1.329914331E0
1.274923438E0,4.491330147E0,1.022438240E1,1.310750484E0
1.276928021E0,4.443420887E0,1.023396397E1,1.262840986E0
1.278932604E0,4.414674759E0,1.025312805E1,1.267631888E0
1.280937188E0,4.395511150E0,1.023875523E1,1.253259063E0
1.282941771E0,4.371556282E0,1.022438240E1,1.219722271E0
1.284946354E0,4.342810631E0,1.021959114E1,1.224513292E0
1.286950938E0,4.309273720E0,1.021000862E1,1.181394696E0
1.288955521E0,4.275737286E0,1.020042706E1,1.167021751E0
1.290960104E0,4.256573200E0,1.020042706E1,1.157439828E0
1.292964688E0,4.184709072E0,1.018605423E1,1.109530330E0
1.294969271E0,4.160754204E0,1.017647266E1,1.090366483E0
1.296973854E0,4.155963421E0,1.015251732E1,1.061620712E0
1.298978438E0,4.141590595E0,1.012856293E1,1.056829810E0
1.300983021E0,4.112844467E0,1.013335419E1,1.028084040E0
1.302987604E0,4.093680859E0,1.012377167E1,1.032874942E0
1.304995000E0,4.050562382E0,1.013335419E1,1.047247887E0
1.306996875E0,4.031398296E0,1.015730858E1,1.023293018E0
1.308998854E0,4.021816730E0,1.014293575E1,1.004129291E0
1.311001042E0,4.031398296E0,1.014772701E1,1.008920193E0
1.313003490E0,4.012234688E0,1.014772701E1,1.013711214E0
1.315006302E0,4.002652645E0,1.016689014E1,1.013711214E0
1.317009531E0,3.969115973E0,1.017647266E1,9.849653840E-1
1.319013177E0,3.940370083E0,1.021000862E1,9.562196136E-1
1.321017292E0,3.935579300E0,1.023875523E1,9.705924988E-1
1.323021875E0,3.925997257E0,1.023875523E1,9.131010175E-1
1.325026875E0,3.916415453E0,1.026270962E1,9.083100557E-1
1.327032292E0,3.911624432E0,1.030103683E1,9.178919792E-1
1.329038073E0,3.897251606E0,1.029624653E1,9.035190940E-1
1.331044167E0,3.897251606E0,1.032020092E1,8.939371705E-1
1.333050469E0,3.878087759E0,1.033457375E1,8.699824214E-1
1.335056927E0,3.878087759E0,1.035852909E1,8.364456892E-1
1.337063438E0,3.839760065E0,1.036811066E1,8.220728636E-1
1.339069948E0,3.854132891E0,1.037769222E1,8.029090166E-1
1.341074792E0,3.873296738E0,1.036811066E1,7.741632462E-1
1.343079375E0,3.858923912E0,1.039206505E1,7.310446501E-1
1.345083958E0,3.863714933E0,1.040643787E1,7.310446501E-1
1.347088542E0,3.858923912E0,1.039685631E1,7.214627862E-1
1.349093125E0,3.834969044E0,1.040643787E1,6.543893814E-1
1.351097708E0,3.834969044E0,1.040643787E1,6.400164962E-1
1.353102292E0,3.806223392E0,1.040643787E1,6.256436110E-1
1.355106875E0,3.791850567E0,1.041122913E1,6.208526492E-1
1.357111458E0,3.820596218E0,1.039206505E1,6.304345727E-1
1.359116042E0,3.782268524E0,1.040164757E1,6.256436110E-1
1.361120625E0,3.734359026E0,1.041602039E1,5.441973209E-1
1.363125208E0,3.734359026E0,1.039206505E1,5.298244953E-1
1.365129792E0,3.748731852E0,1.034894657E1,5.010787249E-1
1.367134375E0,3.743940830E0,1.035852909E1,4.531691670E-1
1.369138958E0,3.734359026E0,1.033936501E1,4.435872436E-1
1.371143542E0,3.710404158E0,1.031540966E1,4.435872436E-1
1.373148125E0,3.686449528E0,1.032499218E1,4.435872436E-1
1.375152708E0,3.696031332E0,1.029624653E1,4.627510905E-1
1.377157292E0,3.662494659E0,1.028187370E1,4.962877631E-1
1.379161875E0,3.681658506E0,1.024833679E1,5.154516101E-1
1.381166458E0,3.705613375E0,1.021000862E1,5.681521297E-1
1.383171042E0,3.734359026E0,1.016209984E1,6.495984197E-1
1.385175625E0,3.691240311E0,1.014772701E1,6.783441305E-1
1.387180208E0,3.681658506E0,1.010939884E1,7.214627862E-1
1.389184792E0,3.681658506E0,1.007107162E1,7.454175353E-1
1.391189375E0,3.676867485E0,1.003274345E1,8.268638253E-1
1.393193958E0,3.643330812E0,1.001357937E1,9.035190940E-1
1.395198542E0,3.600212336E0,9.975252151E0,9.562196136E-1
1.397203125E0,3.542720795E0,9.960879326E0,9.897563457E-1
1.399207708E0,3.504393101E0,9.932133675E0,1.037665963E0
1.401212292E0,3.480438232E0,9.889015198E0,1.123903155E0
1.403216875E0,3.437319756E0,9.893805504E0,1.099948406E0
1.405221458E0,3.398992062E0,9.879432678E0,1.147857904E0
1.407226042E0,3.365455389E0,9.855478287E0,1.210140347E0
1.409230625E0,3.317545652E0,9.836314201E0,1.272422910E0
1.411235208E0,3.284008980E0,9.845896721E0,1.267631888E0
1.413239792E0,3.216935635E0,9.850687027E0,1.325123429E0
1.415244375E0,3.207353830E0,9.850687027E0,1.377823949E0
1.417248958E0,3.125907421E0,9.889015198E0,1.411360621E0
1.419253542E0,3.068415880E0,9.917760849E0,1.416151524E0
1.421258125E0,2.991760731E0,9.965670586E0,1.454479218E0
1.423262708E0,2.915105343E0,9.989624977E0,1.449688315E0
1.425267292E0,2.848031998E0,1.002316189E1,1.454479218E0
1.427271875E0,2.752212763E0,1.006628036E1,1.454479218E0
1.429276458E0,2.661184549E0,1.010939884E1,1.454479218E0
1.431281042E0,2.594111204E0,1.014772701E1,1.464061141E0
1.433285625E0,2.503082991E0,1.017168140E1,1.478433967E0
1.435290208E0,2.450382471E0,1.021479988E1,1.449688315E0
1.437294792E0,2.388100147E0,1.024354553E1,1.502388835E0
1.439299375E0,2.335399628E0,1.028187370E1,1.502388835E0
1.441303958E0,2.311444759E0,1.029624653E1,1.545507431E0
1.443308542E0,2.244371414E0,1.030103683E1,1.540716410E0
1.445313125E0,2.210834742E0,1.030582809E1,1.569462180E0
1.447317708E0,2.134179354E0,1.031540966E1,1.593417048E0
1.449322292E0,2.076687813E0,1.032020092E1,1.626953721E0
1.451326875E0,2.067106009E0,1.031061935E1,1.665281296E0
1.453331458E0,1.985659719E0,1.030582809E1,1.722772837E0
1.455336042E0,1.942541122E0,1.026270962E1,1.789846182E0
1.457340625E0,1.913795352E0,1.021959114E1,1.890456319E0
1.459345208E0,1.870676756E0,1.020521832E1,1.909620166E0
1.461349792E0,1.813185215E0,1.017647266E1,2.015021086E0
1.463354375E0,1.746111870E0,1.012856293E1,2.101258278E0
1.465358958E0,1.679038405E0,1.009023476E1,2.149168015E0
1.467363542E0,1.626337886E0,1.003753471E1,2.230614185E0
1.469368125E0,1.592801213E0,9.989624977E0,2.297687769E0
1.471372708E0,1.530518770E0,9.932133675E0,2.398297787E0
1.473377292E0,1.496982098E0,9.889015198E0,2.460580111E0
1.475381875E0,1.444281578E0,9.826732635E0,2.518071651E0
1.477386458E0,1.434699655E0,9.764450073E0,2.599518061E0
1.479391042E0,1.425117731E0,9.706958771E0,2.671382427E0
1.481395625E0,1.425117731E0,9.630303383E0,2.743246794E0
1.483400208E0,1.434699655E0,9.558439255E0,2.824692965E0
1.485404792E0,1.463445425E0,9.486574173E0,2.906139135E0
1.487409375E0,1.477818251E0,9.433874130E0,2.963630676E0
1.489413958E0,1.496982098E0,9.362010002E0,3.011540174E0
1.491418542E0,1.501773000E0,9.294936180E0,3.045077085E0
1.493423125E0,1.540100694E0,9.223072052E0,3.107359409E0
1.495427708E0,1.554473519E0,9.170371056E0,3.155268908E0
1.497432292E0,1.573637366E0,9.098506927E0,3.198387623E0
1.499436875E0,1.616755962E0,9.045806885E0,3.227133274E0
1.501441458E0,1.640710831E0,8.988314629E0,3.260669947E0
1.503446042E0,1.717366099E0,8.921241760E0,3.298997641E0
1.505450625E0,1.760484695E0,8.858959198E0,3.370862007E0
1.507455208E0,1.808394313E0,8.820631981E0,3.404398680E0
1.509459792E0,1.841930985E0,8.777512550E0,3.409189701E0
1.511464375E0,1.880258679E0,8.729603767E0,3.428353548E0
1.513465260E0,1.942541122E0,8.696066856E0,3.404398680E0
1.515466146E0,1.995241642E0,8.652948380E0,3.452308416E0
1.517467448E0,2.076687813E0,8.619411469E0,3.495426893E0
1.519469271E0,2.100642681E0,8.600247383E0,3.490636110E0
1.521471719E0,2.138970375E0,8.571501732E0,3.509799719E0
1.523474844E0,2.201252699E0,8.542756081E0,3.509799719E0
1.525478698E0,2.234789371E0,8.561920166E0,3.485845089E0
1.527483281E0,2.273117065E0,8.542756081E0,3.433144569E0
1.529488542E0,2.344981432E0,8.542756081E0,3.423562527E0
1.531494427E0,2.368936300E0,8.537964821E0,3.437935352E0
1.533500885E0,2.402472973E0,8.542756081E0,3.428353548E0
1.535507813E0,2.436009645E0,8.547547340E0,3.423562527E0
1.537515104E0,2.431218624E0,8.576292992E0,3.361280203E0
1.539522604E0,2.464755297E0,8.576292992E0,3.327743530E0
1.541530208E0,2.546201706E0,8.595456123E0,3.294206858E0
1.543537813E0,2.570156336E0,8.595456123E0,3.260669947E0
1.545542552E0,2.584529400E0,8.614620209E0,3.231924295E0
1.547547135E0,2.622857094E0,8.624202728E0,3.203178644E0
1.549551719E0,2.646811724E0,8.638575554E0,3.140896082E0
1.551556302E0,2.704303265E0,8.657738686E0,3.102568388E0
1.553560885E0,2.733048916E0,8.696066856E0,3.045077085E0
1.555565469E0,2.728258133E0,8.715229988E0,2.958839655E0
1.557570052E0,2.737839937E0,8.734394073E0,2.925302982E0
1.559574635E0,2.785749435E0,8.739185333E0,2.915721178E0
1.561579219E0,2.785749435E0,8.743976593E0,2.877393484E0
1.563583802E0,2.809704304E0,8.748766899E0,2.810320139E0
1.565588385E0,2.785749435E0,8.772722244E0,2.757619619E0
1.567592969E0,2.776167631E0,8.777512550E0,2.719291925E0
1.569597552E0,2.752212763E0,8.791885376E0,2.671382427E0
1.571602135E0,2.766585588E0,8.782303810E0,2.623472691E0
1.573606719E0,2.780958652E0,8.777512550E0,2.575563192E0
1.575611302E0,2.804913282E0,8.758349419E0,2.551608324E0
1.577615885E0,2.819286108E0,8.743976593E0,2.542026520E0
1.579620469E0,2.785749435E0,8.739185333E0,2.498907804E0
1.581625052E0,2.785749435E0,8.691275597E0,2.460580111E0
1.583629635E0,2.780958652E0,8.681694031E0,2.470162153E0
1.585634219E0,2.718676090E0,8.667321205E0,2.427043438E0
1.587638802E0,2.680348396E0,8.643365860E0,2.412670612E0
1.589643385E0,2.689930439E0,8.648157120E0,2.427043438E0
1.591647969E0,2.689930439E0,8.638575554E0,2.446207285E0
1.593652552E0,2.642020702E0,8.605038643E0,2.427043438E0
1.595657135E0,2.608484030E0,8.595456123E0,2.417461634E0
1.597661719E0,2.550992727E0,8.561920166E0,2.407879591E0
1.599666302E0,2.503082991E0,8.528383255E0,2.422252655E0
1.601670885E0,2.464755297E0,8.523591995E0,2.441416502E0
1.603675469E0,2.426427841E0,8.499637604E0,2.422252655E0
1.605680052E0,2.388100147E0,8.451727867E0,2.431834459E0
1.607684635E0,2.383309126E0,8.442146301E0,2.436625481E0
1.609689219E0,2.340190411E0,8.399026871E0,2.427043438E0
1.611693802E0,2.335399628E0,8.360699654E0,2.450998306E0
1.613698385E0,2.301862955E0,8.331954002E0,2.450998306E0
1.615702969E0,2.301862955E0,8.307998657E0,2.455789328E0
1.617707552E0,2.273117065E0,8.293625832E0,2.460580111E0
1.619712135E0,2.263535261E0,8.274462700E0,2.455789328E0
1.621716719E0,2.234789371E0,8.250507355E0,2.465371132E0
1.623721302E0,2.225207567E0,8.245717049E0,2.465371132E0
1.625725885E0,2.191670895E0,8.212180138E0,2.498907804E0
1.627730469E0,2.162925005E0,8.173851967E0,2.484534979E0
1.629735052E0,2.138970375E0,8.116360664E0,2.498907804E0
1.631739635E0,2.115015507E0,8.092406273E0,2.513280869E0
1.633744219E0,2.091060638E0,8.092406273E0,2.542026520E0
1.635748802E0,2.067106009E0,8.073242188E0,2.561190367E0
1.637753385E0,2.057523966E0,8.063660622E0,2.570772171E0
1.639757969E0,2.023987293E0,8.025332451E0,2.585144997E0
1.641762552E0,2.004823685E0,8.020542145E0,2.585144997E0
1.643767135E0,1.976077795E0,7.987004757E0,2.613890886E0
1.645771719E0,1.956913948E0,7.987004757E0,2.642636538E0
1.647776302E0,1.937750101E0,7.982213974E0,2.637845755E0
1.649780885E0,1.913795352E0,7.972631931E0,2.652218580E0
1.651785469E0,1.889840603E0,7.948677540E0,2.680964231E0
1.653790052E0,1.880258679E0,7.939095497E0,2.680964231E0
1.655794635E0,1.822767138E0,7.963050365E0,2.719291925E0
1.657799219E0,1.808394313E0,7.939095497E0,2.719291925E0
1.659803802E0,1.789230466E0,7.929513454E0,2.714500904E0
1.661808385E0,1.731738925E0,7.929513454E0,2.700128078E0
1.663812969E0,1.683829427E0,7.919931412E0,2.719291925E0
1.665817552E0,1.659874558E0,7.910349846E0,2.743246794E0
1.667822135E0,1.635919809E0,7.953468323E0,2.724082947E0
1.669826719E0,1.597592115E0,7.963050365E0,2.714500904E0
1.671831302E0,1.568846464E0,7.977423191E0,2.719291925E0
1.673835885E0,1.540100694E0,8.015750885E0,2.719291925E0
1.675840469E0,1.501773000E0,8.025332451E0,2.728873730E0
1.677845052E0,1.477818251E0,8.049287796E0,2.728873730E0
1.679849635E0,1.468236327E0,8.063660622E0,2.733664751E0
1.681854219E0,1.449072480E0,8.106779099E0,2.738455772E0
1.683858802E0,1.425117731E0,8.145106316E0,2.728873730E0
1.685863385E0,1.396371961E0,8.169061661E0,2.724082947E0
1.687867969E0,1.377208114E0,8.207388878E0,2.704919100E0
1.689872552E0,1.343671441E0,8.245717049E0,2.704919100E0
1.691877135E0,1.305343747E0,8.293625832E0,2.709709883E0
1.693881719E0,1.281388998E0,8.317581177E0,2.719291925E0
1.695886302E0,1.247852325E0,8.375072479E0,2.709709883E0
1.697890885E0,1.204733729E0,8.384654045E0,2.671382427E0
1.699895469E0,1.175987959E0,8.427773476E0,2.709709883E0
1.701900052E0,1.161615014E0,8.466100693E0,2.714500904E0
1.703904635E0,1.128078341E0,8.499637604E0,2.695337057E0
1.705909219E0,1.089750767E0,8.566710472E0,2.695337057E0
1.707913802E0,1.046632171E0,8.605038643E0,2.709709883E0
1.709918385E0,1.013095379E0,8.628993034E0,2.704919100E0
1.711922969E0,9.603948593E-1,8.681694031E0,2.695337057E0
1.713927552E0,9.364401102E-1,8.696066856E0,2.704919100E0
1.715932135E0,8.885304928E-1,8.724812508E0,2.719291925E0
1.717936719E0,8.118752241E-1,8.777512550E0,2.728873730E0
1.719941302E0,7.687565684E-1,8.772722244E0,2.738455772E0
1.721945885E0,6.968922615E-1,8.806258202E0,2.748037577E0
1.723950469E0,6.298188567E-1,8.835004807E0,2.791156292E0
1.725955052E0,6.010730863E-1,8.830213547E0,2.839065790E0
1.727959635E0,5.148358941E-1,8.825422287E0,2.839065790E0
1.729964219E0,5.244178176E-1,8.801467896E0,2.853438616E0
1.731968802E0,5.004630089E-1,8.844586372E0,2.949257851E0
1.733973385E0,4.669263363E-1,8.825422287E0,3.021122217E0
1.735977969E0,4.046438932E-1,8.825422287E0,3.030704021E0
1.737982552E0,3.663161993E-1,8.820631981E0,3.054658890E0
1.739987135E0,3.088247180E-1,8.806258202E0,3.073822737E0
1.741991719E0,2.513332367E-1,8.830213547E0,3.160059929E0
1.743996302E0,1.986327171E-1,8.863750458E0,3.227133274E0
1.746000885E0,1.411412358E-1,8.878123283E0,3.284624815E0
1.748005469E0,6.448591501E-2,8.916450500E0,3.332534313E0
1.750010052E0,-2.587486058E-3,8.945196152E0,3.366071224E0
1.752014635E0,-5.528801680E-2,8.959568977E0,3.413980722E0
1.754019219E0,-6.966088712E-2,8.993105888E0,3.452308416E0
1.756023802E0,-7.924279571E-2,9.002687454E0,3.519381762E0
1.758028385E0,-6.486992538E-2,9.021851540E0,3.572082281E0
1.760032969E0,-8.882471919E-2,9.069761276E0,3.629573822E0
1.762037552E0,-8.882471919E-2,9.088925362E0,3.667901516E0
1.764042135E0,-1.223614067E-1,9.117671013E0,3.663110495E0
1.766046719E0,-1.175704598E-1,9.127252579E0,3.711019993E0
1.768051302E0,-1.511071622E-1,9.179953575E0,3.763720512E0
1.770055885E0,-1.606890708E-1,9.194326401E0,3.763720512E0
1.772060469E0,-1.654800326E-1,9.213489532E0,3.797257185E0
1.774065052E0,-1.990167350E-1,9.266190529E0,3.816421032E0
1.776069635E0,-1.942257732E-1,9.275772095E0,3.826003075E0
1.778074219E0,-2.181805521E-1,9.294936180E0,3.854748726E0
1.780078802E0,-1.942257732E-1,9.299727440E0,3.883494377E0
1.782083385E0,-2.085986286E-1,9.347637177E0,3.878703594E0
1.784087969E0,-2.133895904E-1,9.338054657E0,3.893076420E0
1.786092552E0,-1.894348115E-1,9.352427483E0,3.917031288E0
1.788097135E0,-1.894348115E-1,9.371591568E0,3.926613092E0
1.790101719E0,-1.990167350E-1,9.395545959E0,3.940985918E0
1.792106302E0,-1.942257732E-1,9.414710045E0,3.940985918E0
1.794110885E0,-1.415252388E-1,9.424292564E0,3.960149765E0
1.796115469E0,-1.606890708E-1,9.438665390E0,3.931404114E0
1.798120052E0,-1.271523684E-1,9.438665390E0,3.917031288E0
1.800124635E0,-1.319433302E-1,9.443455696E0,3.897867441E0
1.802129219E0,-1.031975895E-1,9.467411041E0,3.902658224E0
1.804133802E0,-9.840662777E-2,9.462619781E0,3.888285398E0
1.806138385E0,-8.882471919E-2,9.443455696E0,3.840375900E0
1.808142969E0,-7.924279571E-2,9.462619781E0,3.754138708E0
1.810147552E0,3.094921261E-2,9.476992607E0,3.821212053E0
1.812152135E0,1.171864420E-1,9.505738258E0,3.864330769E0
1.814156719E0,1.842598468E-1,9.534483910E0,3.878703594E0
1.816161302E0,2.082146257E-1,9.558439255E0,3.830793858E0
1.818165885E0,2.273784578E-1,9.572812080E0,3.792466402E0
1.820170469E0,2.752880454E-1,9.582393646E0,3.782884359E0
1.822175052E0,2.944518328E-1,9.611139297E0,3.739765882E0
1.824179635E0,3.327795267E-1,9.620721817E0,3.720602036E0
1.826184219E0,3.854800463E-1,9.615930557E0,3.677483320E0
1.828188802E0,4.142257571E-1,9.659049034E0,3.672692299E0
1.830193385E0,4.860901237E-1,9.659049034E0,3.653528452E0
1.832197969E0,5.196268559E-1,9.663840294E0,3.639155626E0
1.834202552E0,5.627454519E-1,9.702167511E0,3.596037149E0
1.836207135E0,6.154459715E-1,9.730913162E0,3.591246128E0
1.838211719E0,6.585645676E-1,9.754868507E0,3.552918434E0
1.840216302E0,6.873103380E-1,9.769241333E0,3.538545609E0
1.842220885E0,7.495927811E-1,9.764450073E0,3.514590740E0
1.844225469E0,7.831294537E-1,9.783614159E0,3.481054068E0
1.846230052E0,8.502028584E-1,9.797986984E0,3.471472263E0
1.848234635E0,8.933214545E-1,9.821941376E0,3.437935352E0
1.850239219E0,9.316491485E-1,9.817150116E0,3.418771744E0
1.852243802E0,9.939315915E-1,9.836314201E0,3.399607897E0
1.854248385E0,1.027468324E0,9.841105461E0,3.390025854E0
1.856252969E0,1.056213975E0,9.821941376E0,3.366071224E0
1.858257552E0,1.080168843E0,9.836314201E0,3.342116356E0
1.860262135E0,1.118496418E0,9.826732635E0,3.337325335E0
1.862266719E0,1.132869363E0,9.817150116E0,3.322952509E0
1.864271302E0,1.128078341E0,9.802777290E0,3.342116356E0
1.866275885E0,1.156824112E0,9.797986984E0,3.327743530E0
1.868280469E0,1.142451286E0,9.754868507E0,3.318161488E0
1.870285052E0,1.142451286E0,9.735704422E0,3.322952509E0
1.872289635E0,1.128078341E0,9.706958771E0,3.322952509E0
1.874294219E0,1.104123592E0,9.663840294E0,3.346907377E0
1.876298802E0,1.084959745E0,9.625512123E0,3.337325335E0
1.878303385E0,1.056213975E0,9.577602386E0,3.380444050E0
1.880307969E0,1.017886400E0,9.534483910E0,3.385234833E0
1.882312552E0,9.747677445E-1,9.510529518E0,3.413980722E0
1.884317135E0,9.460219741E-1,9.472201347E0,3.423562527E0
1.886321719E0,8.933214545E-1,9.443455696E0,3.457099199E0
1.888326302E0,8.597847819E-1,9.409918785E0,3.495426893E0
1.890330885E0,7.975023389E-1,9.371591568E0,3.533754587E0
1.892335469E0,7.687565684E-1,9.371591568E0,3.557709455E0
1.894340052E0,7.352198958E-1,9.323681831E0,3.586455107E0
1.896344635E0,7.064741254E-1,9.314100266E0,3.639155626E0
1.898349219E0,6.489826441E-1,9.299727440E0,3.663110495E0
1.900353802E0,6.058640480E-1,9.309309006E0,3.725392818E0
1.902358385E0,5.531635284E-1,9.285354614E0,3.758929491E0
1.904362969E0,5.148358941E-1,9.285354614E0,3.773302555E0
1.906367552E0,4.765082002E-1,9.280563354E0,3.835584879E0
1.908372135E0,4.285986423E-1,9.285354614E0,3.859539747E0
1.910376719E0,3.950619698E-1,9.290144920E0,3.888285398E0
1.912381302E0,3.519433141E-1,9.290144920E0,3.931404114E0
1.914385885E0,3.088247180E-1,9.304517746E0,3.960149765E0
1.916390469E0,2.704970837E-1,9.314100266E0,3.993686438E0
1.918395052E0,2.130055875E-1,9.314100266E0,4.012850285E0
1.920399635E0,1.746779233E-1,9.314100266E0,4.036805153E0
1.922404219E0,1.267683506E-1,9.309309006E0,4.036805153E0
1.924408802E0,8.844070137E-2,9.318890572E0,4.060759544E0
1.926413385E0,6.448591501E-2,9.318890572E0,4.065550804E0
1.928417969E0,-2.587486058E-3,9.318890572E0,4.084714413E0
1.930422552E0,-4.091514647E-2,9.309309006E0,4.089505672E0
1.932427135E0,-6.486992538E-2,9.290144920E0,4.089505672E0
1.934431719E0,-9.361566603E-2,9.266190529E0,4.084714413E0
1.936436302E0,-1.175704598E-1,9.266190529E0,4.103878498E0
1.938440885E0,-1.319433302E-1,9.242236137E0,4.103878498E0
1.940445469E0,-1.654800326E-1,9.232653618E0,4.099087238E0
1.942450052E0,-1.894348115E-1,9.213489532E0,4.108669281E0
1.944454635E0,-2.229715139E-1,9.208699226E0,4.099087238E0
1.946459219E0,-2.229715139E-1,9.179953575E0,4.065550804E0
1.948463802E0,-2.517172694E-1,9.179953575E0,4.075132847E0
1.950468385E0,-2.708810568E-1,9.179953575E0,4.032013893E0
1.952472969E0,-2.996268272E-1,9.179953575E0,4.017641068E0
1.954477552E0,-3.139997125E-1,9.179953575E0,3.984104633E0
1.956482135E0,-3.427454233E-1,9.194326401E0,3.955358744E0
1.958486719E0,-3.762821555E-1,9.199116707E0,3.945776939E0
1.960491302E0,-4.050278664E-1,9.199116707E0,3.926613092E0
1.962495885E0,-4.337736368E-1,9.242236137E0,3.893076420E0
1.964500469E0,-4.625194073E-1,9.261399269E0,3.873912573E0
1.966505052E0,-4.673103094E-1,9.275772095E0,3.849957705E0
1.968509635E0,-4.912651181E-1,9.304517746E0,3.830793858E0
1.970514219E0,-5.248018503E-1,9.342845917E0,3.773302555E0
1.972518802E0,-5.343837142E-1,9.362010002E0,3.754138708E0
1.974523385E0,-5.343837142E-1,9.395545959E0,3.754138708E0
1.976527969E0,-5.535475612E-1,9.424292564E0,3.720602036E0
1.978532552E0,-5.631294847E-1,9.443455696E0,3.682274342E0
1.980537135E0,-5.391746759E-1,9.472201347E0,3.667901516E0
1.982541719E0,-5.535475612E-1,9.524902344E0,3.658319473E0
1.984546302E0,-5.487565994E-1,9.548856735E0,3.653528452E0
1.986550885E0,-5.487565994E-1,9.601557732E0,3.629573822E0
1.988555469E0,-5.631294847E-1,9.601557732E0,3.629573822E0
1.990560052E0,-5.727114081E-1,9.644676208E0,3.600827932E0
1.992564635E0,-5.583385229E-1,9.678213120E0,3.591246128E0
1.994569219E0,-5.535475612E-1,9.687794685E0,3.596037149E0
1.996573802E0,-5.248018503E-1,9.716540337E0,3.605618954E0
1.998578385E0,-5.152199268E-1,9.750077248E0,3.615200996E0
2.000582969E0,-4.960560799E-1,9.764450073E0,3.619991779E0
2.002587552E0,-4.960560799E-1,9.774031639E0,3.619991779E0
2.004592135E0,-4.433555603E-1,9.797986984E0,3.624782801E0
2.006596719E0,-4.146097898E-1,9.793195724E0,3.648737669E0
2.008601302E0,-3.906549811E-1,9.802777290E0,3.677483320E0
2.010605885E0,-3.427454233E-1,9.821941376E0,3.715811014E0
2.012610469E0,-3.187906742E-1,9.802777290E0,3.744556665E0
2.014615052E0,-2.565082312E-1,9.793195724E0,3.782884359E0
2.016619635E0,-2.181805521E-1,9.783614159E0,3.826003075E0
2.018624219E0,-1.463162005E-1,9.774031639E0,3.864330769E0
2.020628802E0,-1.079885364E-1,9.745285988E0,3.893076420E0
2.022633385E0,-3.612418473E-2,9.735704422E0,3.940985918E0
2.024637969E0,3.094921261E-2,9.692585945E0,3.964940786E0
2.026642552E0,7.885878533E-2,9.673421860E0,3.998477459E0
2.028647135E0,1.459321827E-1,9.644676208E0,4.051177979E0
2.030651719E0,1.986327171E-1,9.611139297E0,4.094296455E0
2.032656302E0,2.752880454E-1,9.558439255E0,4.127833366E0
2.034660885E0,3.375704885E-1,9.505738258E0,4.175742626E0
2.036665469E0,4.142257571E-1,9.472201347E0,4.223652363E0
2.038670052E0,4.765082002E-1,9.409918785E0,4.257189274E0
2.040674635E0,5.531635284E-1,9.362010002E0,4.290725708E0
2.042679219E0,6.154459715E-1,9.304517746E0,4.329053402E0
2.044683802E0,6.777284145E-1,9.266190529E0,4.357799053E0
2.046688385E0,7.591747046E-1,9.203907967E0,4.376963139E0
2.048692969E0,8.262480497E-1,9.155998230E0,4.396126747E0
2.050697552E0,8.981124163E-1,9.088925362E0,4.424872398E0
2.052702135E0,9.412310719E-1,9.050597191E0,4.424872398E0
2.054706719E0,1.008304477E0,8.997897148E0,4.453618526E0
2.056711302E0,1.065795898E0,8.945196152E0,4.453618526E0
2.058715885E0,1.142451286E0,8.921241760E0,4.420081615E0
2.060720469E0,1.190360785E0,8.897286415E0,4.424872398E0
2.062725052E0,1.243061304E0,8.844586372E0,4.376963139E0
2.064729635E0,1.286179900E0,8.796676636E0,4.357799053E0
2.066734219E0,1.324507594E0,8.763139725E0,4.300307751E0
2.068738802E0,1.358044267E0,8.748766899E0,4.281144142E0
2.070743385E0,1.410744786E0,8.691275597E0,4.238025188E0
2.072747969E0,1.444281578E0,8.686484337E0,4.185324669E0
2.074752552E0,1.468236327E0,8.662529945E0,4.108669281E0
2.076757135E0,1.492191076E0,8.628993034E0,4.065550804E0
2.078761719E0,1.520936847E0,8.614620209E0,3.988895416E0
2.080766302E0,1.535309672E0,8.605038643E0,3.926613092E0
2.082770885E0,1.559264541E0,8.576292992E0,3.854748726E0
2.084775469E0,1.568846464E0,8.552337646E0,3.797257185E0
2.086780052E0,1.583219290E0,8.547547340E0,3.696647167E0
2.088784635E0,1.611965060E0,8.542756081E0,3.615200996E0
2.090789271E0,1.626337886E0,8.533174515E0,3.552918434E0
2.092793906E0,1.616755962E0,8.509219170E0,3.466681242E0
2.094798542E0,1.635919809E0,8.499637604E0,3.394816875E0
2.096803177E0,1.635919809E0,8.504427910E0,3.332534313E0
2.098807813E0,1.650292635E0,8.490055084E0,3.241506338E0
2.100812448E0,1.640710831E0,8.490055084E0,3.188805819E0
2.102817083E0,1.640710831E0,8.480473518E0,3.121732235E0
2.104821719E0,1.635919809E0,8.475682259E0,3.054658890E0
2.106826354E0,1.626337886E0,8.480473518E0,3.001958370E0
2.108830990E0,1.611965060E0,8.466100693E0,2.978003502E0
2.110835625E0,1.616755962E0,8.480473518E0,2.915721178E0
2.112840260E0,1.607174039E0,8.466100693E0,2.877393484E0
2.114844896E0,1.583219290E0,8.499637604E0,2.839065790E0
2.116849531E0,1.588010311E0,8.518801689E0,2.791156292E0
2.118854167E0,1.588010311E0,8.547547340E0,2.743246794E0
2.120858802E0,1.559264541E0,8.576292992E0,2.714500904E0
2.122863438E0,1.549682617E0,8.609828949E0,2.690546274E0
2.124868073E0,1.530518770E0,8.648157120E0,2.666591406E0
2.126872708E0,1.501773000E0,8.696066856E0,2.628263712E0
2.128877344E0,1.492191076E0,8.739185333E0,2.609099865E0
2.130881979E0,1.487400174E0,8.796676636E0,2.589936018E0
2.132886615E0,1.463445425E0,8.863750458E0,2.556399345E0
2.134891250E0,1.444281578E0,8.930823326E0,2.532444477E0
2.136895885E0,1.444281578E0,8.993105888E0,2.513280869E0
2.138900521E0,1.410744786E0,9.055388451E0,2.479743958E0
2.140905156E0,1.391581059E0,9.112879753E0,2.474953175E0
2.142909792E0,1.381999135E0,9.199116707E0,2.436625481E0
2.144914427E0,1.358044267E0,9.261399269E0,2.427043438E0
2.146919010E0,1.334089518E0,9.314100266E0,2.369552135E0
2.148923594E0,1.324507594E0,9.366800308E0,2.369552135E0
2.150928177E0,1.290970922E0,9.438665390E0,2.364761114E0
2.152932760E0,1.286179900E0,9.491365433E0,2.316851616E0
2.154937344E0,1.271807075E0,9.534483910E0,2.288105726E0
2.156941927E0,1.252643228E0,9.615930557E0,2.254569054E0
2.158946510E0,1.243061304E0,9.659049034E0,2.240196228E0
2.160951094E0,1.243061304E0,9.702167511E0,2.216241360E0
2.162955677E0,1.233479381E0,9.730913162E0,2.192286491E0
2.164960260E0,1.195151806E0,9.793195724E0,2.168331861E0
2.166964844E0,1.199942708E0,9.821941376E0,2.153958797E0
2.168969427E0,1.175987959E0,9.869851112E0,2.144376993E0
2.170974010E0,1.175987959E0,9.898596764E0,2.125213146E0
2.172978594E0,1.137660265E0,9.941715240E0,2.091676474E0
2.174983177E0,1.128078341E0,9.965670586E0,2.077303648E0
2.176987760E0,1.094541669E0,9.989624977E0,2.086885452E0
2.178992344E0,1.075377822E0,1.002316189E1,2.067721605E0
2.180996927E0,1.051423073E0,1.006148911E1,2.067721605E0
2.183001510E0,1.027468324E0,1.008065319E1,2.062930822E0
2.185006094E0,1.017886400E0,1.010939884E1,2.058139801E0
2.187010677E0,9.939315915E-1,1.015251732E1,2.048557758E0
2.189015260E0,9.651858211E-1,1.014293575E1,2.043766975E0
2.191019844E0,9.364401102E-1,1.016689014E1,2.043766975E0
2.193024427E0,9.124853015E-1,1.017647266E1,2.038975954E0
2.195029010E0,9.220672250E-1,1.018605423E1,2.024603128E0
2.197033594E0,8.933214545E-1,1.020042706E1,2.029393911E0
2.199038177E0,8.789486289E-1,1.020521832E1,2.043766975E0
2.201042760E0,8.693667054E-1,1.019563580E1,2.029393911E0
2.203047344E0,8.502028584E-1,1.021959114E1,2.038975954E0
2.205051927E0,8.597847819E-1,1.021959114E1,2.038975954E0
2.207056510E0,8.502028584E-1,1.021479988E1,2.029393911E0
2.209061094E0,8.454118967E-1,1.021479988E1,2.048557758E0
2.211065677E0,8.166661859E-1,1.022917271E1,2.034184933E0
2.213070260E0,8.310390115E-1,1.021479988E1,2.053348780E0
2.215074844E0,8.262480497E-1,1.021479988E1,2.043766975E0
2.217079427E0,8.214571476E-1,1.018605423E1,2.038975954E0
2.219084010E0,8.070842624E-1,1.021000862E1,2.015021086E0
2.221088594E0,8.166661859E-1,1.020521832E1,2.019812107E0
2.223093177E0,8.214571476E-1,1.020521832E1,2.015021086E0
2.225097760E0,8.310390115E-1,1.020521832E1,1.995857358E0
2.227102344E0,8.358299732E-1,1.019084549E1,1.976693511E0
2.229106927E0,8.262480497E-1,1.020042706E1,1.952738762E0
2.231111510E0,8.310390115E-1,1.021000862E1,1.943156838E0
2.233116094E0,8.310390115E-1,1.019563580E1,1.919202089E0
2.235120677E0,8.262480497E-1,1.021000862E1,1.895247340E0
2.237125260E0,8.310390115E-1,1.019563580E1,1.876083493E0
2.239129844E0,8.358299732E-1,1.021000862E1,1.861710548E0
2.241134427E0,8.358299732E-1,1.019084549E1,1.813801050E0
2.243139010E0,8.310390115E-1,1.017168140E1,1.813801050E0
2.245143594E0,8.358299732E-1,1.016209984E1,1.813801050E0
2.247148177E0,8.454118967E-1,1.014772701E1,1.785055280E0
2.249152760E0,8.358299732E-1,1.011419010E1,1.780264378E0
2.251157344E0,8.406209350E-1,1.008065319E1,1.785055280E0
2.253161927E0,8.310390115E-1,1.005669880E1,1.770682454E0
2.255166510E0,8.118752241E-1,1.001357937E1,1.770682454E0
2.257171094E0,8.118752241E-1,9.980043411E0,1.765891433E0
2.259175677E0,8.118752241E-1,9.941715240E0,1.761100531E0
2.261180260E0,7.735475302E-1,9.903388023E0,1.770682454E0
2.263184844E0,7.639656067E-1,9.865059853E0,1.780264378E0
2.265189427E0,7.591747046E-1,9.817150116E0,1.789846182E0
2.267194010E0,7.400108576E-1,9.778822899E0,1.799428105E0
2.269198594E0,7.304289341E-1,9.730913162E0,1.804219127E0
2.271203177E0,7.112650871E-1,9.692585945E0,1.832964897E0
2.273207760E0,6.968922615E-1,9.654257774E0,1.852128625E0
2.275212344E0,6.873103380E-1,9.611139297E0,1.852128625E0
2.277216927E0,6.585645676E-1,9.568020821E0,1.885665417E0
2.279221510E0,6.394007206E-1,9.534483910E0,1.890456319E0
2.281226094E0,6.202369332E-1,9.481783867E0,1.909620166E0
2.283230677E0,6.058640480E-1,9.457828522E0,1.904829144E0
2.285235260E0,5.723273754E-1,9.424292564E0,1.943156838E0
2.287239844E0,5.627454519E-1,9.405128479E0,1.928784013E0
2.289244427E0,5.627454519E-1,9.362010002E0,1.947947860E0
2.291249010E0,5.483725667E-1,9.333264351E0,1.943156838E0
2.293253594E0,5.435816050E-1,9.309309006E0,1.943156838E0
2.295258177E0,5.100449324E-1,9.280563354E0,1.933574915E0
2.297262760E0,5.052539706E-1,9.247026443E0,1.928784013E0
2.299267344E0,5.004630089E-1,9.247026443E0,1.909620166E0
2.301271927E0,4.956720471E-1,9.223072052E0,1.895247340E0
2.303276510E0,4.860901237E-1,9.203907967E0,1.880874395E0
2.305281094E0,4.956720471E-1,9.179953575E0,1.861710548E0
2.307285677E0,4.812991619E-1,9.160789490E0,1.832964897E0
2.309290260E0,4.908810854E-1,9.179953575E0,1.813801050E0
2.311294844E0,4.908810854E-1,9.170371056E0,1.794637203E0
2.313299427E0,5.052539706E-1,9.160789490E0,1.756309509E0
2.315304010E0,4.956720471E-1,9.175162315E0,1.717981935E0
2.317308594E0,5.004630089E-1,9.179953575E0,1.694027066E0
2.319313177E0,5.244178176E-1,9.184743881E0,1.660490394E0
2.321317760E0,5.100449324E-1,9.194326401E0,1.636535645E0
2.323322344E0,5.292087793E-1,9.218280792E0,1.602998853E0
2.325326927E0,5.387906432E-1,9.247026443E0,1.545507431E0
2.327331510E0,5.579544902E-1,9.251817703E0,1.516761661E0
2.329336094E0,5.579544902E-1,9.280563354E0,1.473643064E0
2.331340677E0,5.483725667E-1,9.290144920E0,1.444897294E0
2.333345260E0,5.675364137E-1,9.314100266E0,1.420942545E0
2.335349844E0,5.867002010E-1,9.347637177E0,1.377823949E0
2.337354427E0,5.962821245E-1,9.352427483E0,1.349078178E0
2.339359010E0,5.962821245E-1,9.395545959E0,1.320332408E0
2.341363594E0,6.010730863E-1,9.429082870E0,1.291586637E0
2.343368177E0,6.058640480E-1,9.462619781E0,1.253259063E0
2.345372760E0,5.962821245E-1,9.476992607E0,1.234095216E0
2.347377344E0,6.346098185E-1,9.510529518E0,1.210140347E0
2.349381927E0,6.441916823E-1,9.548856735E0,1.195767522E0
2.351386510E0,6.633555293E-1,9.596766472E0,1.181394696E0
2.353391094E0,6.777284145E-1,9.611139297E0,1.167021751E0
2.355395677E0,6.729374528E-1,9.649467468E0,1.171812773E0
2.357400260E0,6.825193763E-1,9.678213120E0,1.167021751E0
2.359404844E0,6.921012998E-1,9.711749077E0,1.157439828E0
2.361409427E0,7.064741254E-1,9.750077248E0,1.171812773E0
2.363414010E0,7.160560489E-1,9.778822899E0,1.167021751E0
2.365418594E0,7.256379724E-1,9.807568550E0,1.162230849E0
2.367423177E0,7.495927811E-1,9.826732635E0,1.167021751E0
2.369427760E0,7.639656067E-1,9.865059853E0,1.186185598E0
2.371432344E0,7.783384919E-1,9.879432678E0,1.181394696E0
2.373433594E0,7.927113771E-1,9.903388023E0,1.205349445E0
2.375434844E0,8.406209350E-1,9.908178329E0,1.238886118E0
2.377436510E0,8.502028584E-1,9.932133675E0,1.243677139E0
2.379438698E0,8.645757437E-1,9.936924934E0,1.253259063E0
2.381441458E0,8.981124163E-1,9.946506500E0,1.277213812E0
2.383444844E0,9.268581867E-1,9.951297760E0,1.310750484E0
2.385448906E0,9.508129358E-1,9.970460892E0,1.301168561E0
2.387453646E0,9.556038976E-1,9.960879326E0,1.325123429E0
2.389459010E0,9.747677445E-1,9.960879326E0,1.363451004E0
2.391464948E0,9.987225533E-1,9.951297760E0,1.420942545E0
2.393471354E0,1.032259226E0,9.951297760E0,1.425733447E0
2.395478177E0,1.056213975E0,9.932133675E0,1.468852162E0
2.397485313E0,1.080168843E0,9.932133675E0,1.478433967E0
2.399492604E0,1.089750767E0,9.932133675E0,1.526343584E0
2.401499948E0,1.147242188E0,9.912969589E0,1.540716410E0
2.403506771E0,1.175987959E0,9.889015198E0,1.559880257E0
2.405511354E0,1.199942708E0,9.908178329E0,1.593417048E0
2.407515938E0,1.219106555E0,9.903388023E0,1.617371798E0
2.409520521E0,1.247852325E0,9.932133675E0,1.607789874E0
2.411525104E0,1.281388998E0,9.898596764E0,1.626953721E0
2.413529688E0,1.310134768E0,9.912969589E0,1.636535645E0
2.415534271E0,1.343671441E0,9.912969589E0,1.650908470E0
2.417538854E0,1.362835288E0,9.936924934E0,1.660490394E0
2.419543438E0,1.391581059E0,9.946506500E0,1.665281296E0
2.421548021E0,1.429908633E0,9.946506500E0,1.674863219E0
2.423552604E0,1.463445425E0,9.960879326E0,1.670072317E0
2.425557188E0,1.492191076E0,9.984833717E0,1.650908470E0
2.427561771E0,1.501773000E0,9.984833717E0,1.665281296E0
2.429566354E0,1.544891596E0,9.999206543E0,1.650908470E0
2.431570938E0,1.583219290E0,1.000878906E1,1.636535645E0
2.433575521E0,1.626337886E0,1.001357937E1,1.612580776E0
2.435580104E0,1.626337886E0,1.002795315E1,1.602998853E0
2.437584688E0,1.669456482E0,1.004711628E1,1.598207951E0
2.439589271E0,1.683829427E0,1.007107162E1,1.598207951E0
2.441593854E0,1.712575078E0,1.007586193E1,1.574253201E0
2.443598438E0,1.726948023E0,1.007586193E1,1.550298333E0
2.445603021E0,1.736529946E0,1.008544445E1,1.540716410E0
2.447607604E0,1.760484695E0,1.009502602E1,1.521552682E0
2.449612188E0,1.774857521E0,1.008065319E1,1.497597814E0
2.451616771E0,1.789230466E0,1.008544445E1,1.497597814E0
2.453621354E0,1.794021368E0,1.009981728E1,1.473643064E0
2.455625938E0,1.794021368E0,1.009023476E1,1.478433967E0
2.457630521E0,1.808394313E0,1.006628036E1,1.449688315E0
2.459635104E0,1.798812389E0,1.006628036E1,1.468852162E0
2.461639688E0,1.794021368E0,1.005669880E1,1.444897294E0
2.463644271E0,1.779648542E0,1.002795315E1,1.440106392E0
2.465648854E0,1.813185215E0,1.001837063E1,1.425733447E0
2.467653438E0,1.774857521E0,9.980043411E0,1.449688315E0
2.469658021E0,1.770066619E0,9.970460892E0,1.440106392E0
2.471662604E0,1.750902772E0,9.932133675E0,1.435315371E0
2.473667188E0,1.736529946E0,9.941715240E0,1.444897294E0
2.475671771E0,1.717366099E0,9.898596764E0,1.454479218E0
2.477676354E0,1.712575078E0,9.879432678E0,1.430524468E0
2.479680938E0,1.669456482E0,9.855478287E0,1.459270239E0
2.481685521E0,1.659874558E0,9.831523895E0,1.449688315E0
2.483690104E0,1.631128907E0,9.826732635E0,1.464061141E0
2.485694688E0,1.616755962E0,9.812359810E0,1.454479218E0
2.487699271E0,1.592801213E0,9.788404465E0,1.464061141E0
2.489703854E0,1.578428388E0,9.793195724E0,1.468852162E0
2.491708438E0,1.554473519E0,9.774031639E0,1.459270239E0
2.493713021E0,1.540100694E0,9.764450073E0,1.473643064E0
2.495717604E0,1.492191076E0,9.740495682E0,1.483224988E0
2.497722188E0,1.473027229E0,9.730913162E0,1.483224988E0
2.499726771E0,1.449072480E0,9.726122856E0,1.502388835E0
2.501731354E0,1.434699655E0,9.730913162E0,1.492806911E0
2.503735938E0,1.405953884E0,9.721331596E0,1.502388835E0
2.505740521E0,1.396371961E0,9.716540337E0,1.488015890E0
2.507745104E0,1.372417212E0,9.687794685E0,1.502388835E0
2.509749688E0,1.353253365E0,9.683003426E0,1.492806911E0
2.511754271E0,1.324507594E0,9.678213120E0,1.488015890E0
2.513758854E0,1.300552845E0,9.668630600E0,1.492806911E0
2.515763438E0,1.286179900E0,9.673421860E0,1.488015890E0
2.517768021E0,1.262225151E0,9.644676208E0,1.492806911E0
2.519772604E0,1.243061304E0,9.649467468E0,1.464061141E0
2.521777188E0,1.247852325E0,9.625512123E0,1.478433967E0
2.523781771E0,1.233479381E0,9.601557732E0,1.473643064E0
2.525786354E0,1.233479381E0,9.591975212E0,1.454479218E0
2.527790938E0,1.233479381E0,9.577602386E0,1.444897294E0
2.529795521E0,1.238270402E0,9.582393646E0,1.416151524E0
2.531800104E0,1.233479381E0,9.582393646E0,1.430524468E0
2.533804688E0,1.233479381E0,9.568020821E0,1.416151524E0
2.535809271E0,1.243061304E0,9.563229561E0,1.420942545E0
2.537813854E0,1.247852325E0,9.563229561E0,1.387405872E0
2.539818438E0,1.247852325E0,9.582393646E0,1.392196774E0
2.541823021E0,1.257434249E0,9.591975212E0,1.392196774E0
2.543827604E0,1.262225151E0,9.601557732E0,1.363451004E0
2.545832188E0,1.252643228E0,9.611139297E0,1.329914331E0
2.547836771E0,1.267016172E0,9.620721817E0,1.320332408E0
2.549841354E0,1.290970922E0,9.615930557E0,1.301168561E0
2.551845938E0,1.295761824E0,9.606348038E0,1.305959582E0
2.553850521E0,1.290970922E0,9.620721817E0,1.310750484E0
2.555855104E0,1.295761824E0,9.649467468E0,1.291586637E0
2.557859688E0,1.319716692E0,9.663840294E0,1.305959582E0
2.559864271E0,1.319716692E0,9.659049034E0,1.296377659E0
2.561868854E0,1.338880539E0,9.678213120E0,1.305959582E0
2.563873438E0,1.334089518E0,9.697376251E0,1.282004833E0
2.565878021E0,1.338880539E0,9.706958771E0,1.282004833E0
2.567882604E0,1.358044267E0,9.716540337E0,1.282004833E0
2.569887188E0,1.377208114E0,9.716540337E0,1.272422910E0
2.571891771E0,1.401162982E0,9.726122856E0,1.272422910E0
2.573896354E0,1.396371961E0,9.745285988E0,1.282004833E0
2.575900938E0,1.372417212E0,9.774031639E0,1.277213812E0
2.577905521E0,1.415535808E0,9.769241333E0,1.267631888E0
2.579910104E0,1.401162982E0,9.788404465E0,1.253259063E0
2.581914688E0,1.410744786E0,9.774031639E0,1.267631888E0
2.583919271E0,1.401162982E0,9.778822899E0,1.248468041E0
2.585923854E0,1.420326710E0,9.797986984E0,1.277213812E0
2.587928438E0,1.420326710E0,9.783614159E0,1.267631888E0
2.589933021E0,1.410744786E0,9.817150116E0,1.286795735E0
2.591937604E0,1.401162982E0,9.812359810E0,1.243677139E0
2.593942188E0,1.425117731E0,9.807568550E0,1.262840986E0
2.595946771E0,1.410744786E0,9.821941376E0,1.238886118E0
2.597951354E0,1.405953884E0,9.831523895E0,1.243677139E0
2.599955938E0,1.429908633E0,9.821941376E0,1.224513292E0
2.601960521E0,1.425117731E0,9.826732635E0,1.234095216E0
2.603965104E0,1.410744786E0,9.836314201E0,1.214931369E0
2.605969688E0,1.405953884E0,9.836314201E0,1.224513292E0
2.607974271E0,1.396371961E0,9.836314201E0,1.224513292E0
2.609978854E0,1.410744786E0,9.831523895E0,1.224513292E0
2.611983438E0,1.381999135E0,9.845896721E0,1.214931369E0
2.613988021E0,1.372417212E0,9.850687027E0,1.219722271E0
2.615992604E0,1.381999135E0,9.841105461E0,1.224513292E0
2.617997188E0,1.377208114E0,9.850687027E0,1.205349445E0
2.620001771E0,1.367626190E0,9.845896721E0,1.224513292E0
2.622006354E0,1.367626190E0,9.860269547E0,1.214931369E0
2.624010938E0,1.372417212E0,9.841105461E0,1.224513292E0
2.626015521E0,1.367626190E0,9.836314201E0,1.224513292E0
2.628020104E0,1.358044267E0,9.821941376E0,1.229304194E0
2.630024688E0,1.348462343E0,9.836314201E0,1.248468041E0
2.632029271E0,1.329298615E0,9.826732635E0,1.253259063E0
2.634033854E0,1.324507594E0,9.841105461E0,1.243677139E0
2.636038438E0,1.314925671E0,9.807568550E0,1.248468041E0
2.638043021E0,1.334089518E0,9.836314201E0,1.243677139E0
2.640047604E0,1.310134768E0,9.841105461E0,1.262840986E0
2.642052240E0,1.324507594E0,9.817150116E0,1.258049965E0
2.644056875E0,1.334089518E0,9.817150116E0,1.253259063E0
2.646061510E0,1.329298615E0,9.821941376E0,1.267631888E0
2.648066146E0,1.338880539E0,9.831523895E0,1.267631888E0
2.650070781E0,1.338880539E0,9.826732635E0,1.272422910E0
2.652075417E0,1.338880539E0,9.812359810E0,1.291586637E0
2.654080052E0,1.348462343E0,9.826732635E0,1.286795735E0
2.656084688E0,1.348462343E0,9.831523895E0,1.325123429E0
2.658089323E0,1.343671441E0,9.855478287E0,1.320332408E0
2.660093958E0,1.343671441E0,9.850687027E0,1.334705353E0
2.662098594E0,1.377208114E0,9.860269547E0,1.320332408E0
2.664103229E0,1.362835288E0,9.865059853E0,1.329914331E0
2.666107865E0,1.358044267E0,9.831523895E0,1.358660102E0
2.668112500E0,1.377208114E0,9.845896721E0,1.363451004E0
2.670117135E0,1.386790037E0,9.860269547E0,1.368242025E0
2.672121771E0,1.391581059E0,9.845896721E0,1.392196774E0
2.674126406E0,1.381999135E0,9.826732635E0,1.387405872E0
2.676131042E0,1.381999135E0,9.826732635E0,1.406569719E0
2.678135677E0,1.391581059E0,9.826732635E0,1.396987796E0
2.680140313E0,1.381999135E0,9.817150116E0,1.416151524E0
2.682144948E0,1.386790037E0,9.802777290E0,1.416151524E0
2.684149583E0,1.396371961E0,9.797986984E0,1.435315371E0
2.686154219E0,1.367626190E0,9.783614159E0,1.440106392E0
2.688158854E0,1.381999135E0,9.778822899E0,1.435315371E0
2.690163490E0,1.372417212E0,9.778822899E0,1.449688315E0
2.692168125E0,1.396371961E0,9.778822899E0,1.440106392E0
2.694172760E0,1.401162982E0,9.759658813E0,1.430524468E0
2.696177396E0,1.401162982E0,9.750077248E0,1.444897294E0
2.698182031E0,1.391581059E0,9.740495682E0,1.420942545E0
2.700186667E0,1.401162982E0,9.750077248E0,1.420942545E0
2.702191302E0,1.377208114E0,9.730913162E0,1.420942545E0
2.704195938E0,1.377208114E0,9.730913162E0,1.411360621E0
2.706200521E0,1.377208114E0,9.754868507E0,1.396987796E0
2.708205104E0,1.362835288E0,9.740495682E0,1.416151524E0
2.710209688E0,1.367626190E0,9.730913162E0,1.373032928E0
2.712214271E0,1.353253365E0,9.754868507E0,1.373032928E0
2.714218854E0,1.367626190E0,9.750077248E0,1.382614851E0
2.716223438E0,1.367626190E0,9.754868507E0,1.353869081E0
2.718228021E0,1.358044267E0,9.754868507E0,1.339496255E0
2.720232604E0,1.348462343E0,9.754868507E0,1.325123429E0
2.722237188E0,1.324507594E0,9.769241333E0,1.320332408E0
2.724241771E0,1.319716692E0,9.759658813E0,1.305959582E0
2.726246354E0,1.324507594E0,9.774031639E0,1.296377659E0
2.728250938E0,1.314925671E0,9.774031639E0,1.272422910E0
2.730255521E0,1.290970922E0,9.778822899E0,1.277213812E0
2.732260104E0,1.276598096E0,9.764450073E0,1.267631888E0
2.734264688E0,1.262225151E0,9.778822899E0,1.243677139E0
2.736269271E0,1.257434249E0,9.759658813E0,1.243677139E0
2.738273854E0,1.223897457E0,9.769241333E0,1.243677139E0
2.740278438E0,1.214315653E0,9.793195724E0,1.234095216E0
2.742283021E0,1.199942708E0,9.783614159E0,1.224513292E0
2.744287604E0,1.209524632E0,9.788404465E0,1.214931369E0
2.746292188E0,1.199942708E0,9.802777290E0,1.224513292E0
2.748296771E0,1.166406035E0,9.774031639E0,1.214931369E0
2.750301354E0,1.152033210E0,9.797986984E0,1.210140347E0
2.752305938E0,1.137660265E0,9.793195724E0,1.214931369E0
2.754310521E0,1.118496418E0,9.802777290E0,1.200558424E0
2.756315104E0,1.099332571E0,9.793195724E0,1.210140347E0
2.758319688E0,1.089750767E0,9.793195724E0,1.205349445E0
2.760324271E0,1.075377822E0,9.774031639E0,1.219722271E0
2.762328854E0,1.070586920E0,9.774031639E0,1.234095216E0
2.764333438E0,1.056213975E0,9.783614159E0,1.229304194E0
2.766338021E0,1.041841149E0,9.778822899E0,1.234095216E0
2.768342604E0,1.027468324E0,9.783614159E0,1.229304194E0
2.770347188E0,1.013095379E0,9.783614159E0,1.258049965E0
2.772351771E0,9.939315915E-1,9.788404465E0,1.272422910E0
2.774356354E0,1.008304477E0,9.788404465E0,1.248468041E0
2.776360938E0,9.987225533E-1,9.769241333E0,1.253259063E0
2.778365521E0,9.891406298E-1,9.793195724E0,1.296377659E0
2.780370104E0,9.843496680E-1,9.764450073E0,1.291586637E0
2.782374688E0,9.747677445E-1,9.778822899E0,1.305959582E0
2.784379271E0,9.603948593E-1,9.774031639E0,1.305959582E0
2.786383854E0,9.747677445E-1,9.788404465E0,1.329914331E0
2.788388438E0,9.651858211E-1,9.778822899E0,1.344287276E0
2.790393021E0,9.556038976E-1,9.778822899E0,1.344287276E0
2.792397604E0,9.556038976E-1,9.754868507E0,1.344287276E0
2.794402188E0,9.364401102E-1,9.774031639E0,1.368242025E0
2.796406771E0,9.460219741E-1,9.764450073E0,1.396987796E0
2.798411354E0,9.603948593E-1,9.774031639E0,1.396987796E0
2.800415938E0,9.412310719E-1,9.754868507E0,1.387405872E0
2.802420521E0,9.508129358E-1,9.750077248E0,1.416151524E0
2.804425104E0,9.508129358E-1,9.754868507E0,1.416151524E0
2.806429688E0,9.603948593E-1,9.740495682E0,1.420942545E0
2.808434271E0,9.651858211E-1,9.745285988E0,1.440106392E0
2.810438854E0,9.795587063E-1,9.726122856E0,1.454479218E0
2.812443438E0,9.651858211E-1,9.716540337E0,1.454479218E0
2.814448021E0,9.747677445E-1,9.692585945E0,1.464061141E0
2.816452604E0,9.556038976E-1,9.683003426E0,1.478433967E0
2.818457188E0,9.699767828E-1,9.673421860E0,1.511970758E0
2.820461771E0,9.843496680E-1,9.663840294E0,1.526343584E0
2.822466354E0,9.843496680E-1,9.663840294E0,1.531134605E0
2.824470938E0,9.843496680E-1,9.635094643E0,1.531134605E0
2.826475521E0,9.891406298E-1,9.630303383E0,1.545507431E0
2.828480104E0,1.003513575E0,9.615930557E0,1.574253201E0
2.830484688E0,1.013095379E0,9.601557732E0,1.574253201E0
2.832489271E0,1.013095379E0,9.587184906E0,1.607789874E0
2.834493854E0,1.017886400E0,9.596766472E0,1.612580776E0
2.836498438E0,1.041841149E0,9.568020821E0,1.612580776E0
2.838503021E0,1.027468324E0,9.582393646E0,1.626953721E0
2.840507604E0,1.041841149E0,9.572812080E0,1.646117568E0
2.842512188E0,1.051423073E0,9.558439255E0,1.650908470E0
2.844516771E0,1.041841149E0,9.553647995E0,1.655699492E0
2.846521354E0,1.046632171E0,9.548856735E0,1.646117568E0
2.848525938E0,1.037050247E0,9.568020821E0,1.670072317E0
2.850530521E0,1.041841149E0,9.572812080E0,1.694027066E0
2.852535104E0,1.070586920E0,9.558439255E0,1.684445143E0
2.854539688E0,1.041841149E0,9.563229561E0,1.703608990E0
2.856544271E0,1.061004996E0,9.587184906E0,1.694027066E0
2.858548854E0,1.061004996E0,9.582393646E0,1.703608990E0
2.860553438E0,1.061004996E0,9.577602386E0,1.722772837E0
2.862558021E0,1.032259226E0,9.587184906E0,1.694027066E0
2.864562604E0,1.008304477E0,9.606348038E0,1.684445143E0
2.866567188E0,1.008304477E0,9.596766472E0,1.684445143E0
2.868571771E0,9.843496680E-1,9.601557732E0,1.684445143E0
2.870576354E0,9.843496680E-1,9.611139297E0,1.670072317E0
2.872580938E0,9.364401102E-1,9.615930557E0,1.679654241E0
2.874585521E0,9.124853015E-1,9.615930557E0,1.670072317E0
2.876590104E0,8.789486289E-1,9.615930557E0,1.670072317E0
2.878594688E0,8.597847819E-1,9.611139297E0,1.655699492E0
2.880599271E0,8.358299732E-1,9.615930557E0,1.626953721E0
2.882603854E0,7.927113771E-1,9.620721817E0,1.636535645E0
2.884608438E0,7.543837428E-1,9.620721817E0,1.617371798E0
2.886613021E0,7.160560489E-1,9.620721817E0,1.602998853E0
2.888617604E0,6.825193763E-1,9.606348038E0,1.593417048E0
2.890622188E0,6.489826441E-1,9.625512123E0,1.550298333E0
2.892626771E0,6.154459715E-1,9.606348038E0,1.564671278E0
2.894631406E0,5.819092393E-1,9.606348038E0,1.545507431E0
2.896636042E0,5.627454519E-1,9.611139297E0,1.545507431E0
2.898640677E0,5.244178176E-1,9.596766472E0,1.535925508E0
2.900645313E0,4.717172384E-1,9.582393646E0,1.511970758E0
2.902649948E0,4.525534511E-1,9.601557732E0,1.516761661E0
2.904654583E0,4.381805658E-1,9.606348038E0,1.511970758E0
2.906659219E0,3.950619698E-1,9.577602386E0,1.497597814E0
2.908663854E0,3.567342758E-1,9.606348038E0,1.473643064E0
2.910668490E0,3.279885650E-1,9.582393646E0,1.488015890E0
2.912673125E0,3.184066415E-1,9.591975212E0,1.488015890E0
2.914677760E0,2.561241984E-1,9.582393646E0,1.468852162E0
2.916682396E0,2.273784578E-1,9.587184906E0,1.473643064E0
2.918687031E0,2.082146257E-1,9.582393646E0,1.478433967E0
2.920691667E0,1.698869765E-1,9.582393646E0,1.473643064E0
2.922696302E0,1.459321827E-1,9.572812080E0,1.497597814E0
2.924700938E0,1.219773963E-1,9.572812080E0,1.483224988E0
2.926705573E0,8.364973962E-2,9.568020821E0,1.483224988E0
2.928710208E0,8.364973962E-2,9.568020821E0,1.468852162E0
2.930714844E0,4.532208294E-2,9.563229561E0,1.492806911E0
2.932719479E0,3.094921261E-2,9.568020821E0,1.502388835E0
2.934724115E0,1.178538427E-2,9.572812080E0,1.492806911E0
2.936728750E0,-2.654226869E-2,9.577602386E0,1.497597814E0
2.938733385E0,-6.007897109E-2,9.587184906E0,1.488015890E0
2.940738021E0,-7.445184886E-2,9.572812080E0,1.492806911E0
2.942742656E0,-8.403375745E-2,9.596766472E0,1.464061141E0
2.944747292E0,-1.367342919E-1,9.601557732E0,1.464061141E0
2.946751927E0,-1.606890708E-1,9.606348038E0,1.464061141E0
2.948756563E0,-1.990167350E-1,9.596766472E0,1.454479218E0
2.950761198E0,-2.038076967E-1,9.615930557E0,1.464061141E0
2.952765833E0,-2.277624756E-1,9.601557732E0,1.411360621E0
2.954770469E0,-2.469262928E-1,9.606348038E0,1.435315371E0
2.956775104E0,-2.756720185E-1,9.625512123E0,1.425733447E0
2.958779740E0,-3.044177890E-1,9.615930557E0,1.416151524E0
2.960784375E0,-3.092087507E-1,9.620721817E0,1.392196774E0
2.962788958E0,-3.283725977E-1,9.625512123E0,1.373032928E0
2.964793542E0,-3.331634998E-1,9.644676208E0,1.368242025E0
2.966798125E0,-3.523273468E-1,9.625512123E0,1.334705353E0
2.968802708E0,-3.667002320E-1,9.649467468E0,1.325123429E0
2.970807292E0,-3.619092703E-1,9.663840294E0,1.305959582E0
2.972811875E0,-3.667002320E-1,9.683003426E0,1.282004833E0
2.974816458E0,-3.667002320E-1,9.697376251E0,1.267631888E0
2.976821042E0,-3.523273468E-1,9.706958771E0,1.258049965E0
2.978825625E0,-3.331634998E-1,9.735704422E0,1.248468041E0
2.980830208E0,-3.139997125E-1,9.774031639E0,1.234095216E0
2.982834792E0,-2.900449038E-1,9.764450073E0,1.205349445E0
2.984839375E0,-2.517172694E-1,9.807568550E0,1.186185598E0
2.986843958E0,-2.277624756E-1,9.860269547E0,1.167021751E0
2.988848542E0,-2.181805521E-1,9.879432678E0,1.157439828E0
2.990853125E0,-1.942257732E-1,9.927342415E0,1.157439828E0
2.992857708E0,-1.463162005E-1,9.984833717E0,1.147857904E0
2.994862292E0,-1.127794981E-1,1.000878906E1,1.119112253E0
2.996866875E0,-7.924279571E-2,1.008065319E1,1.114321232E0
2.998871458E0,-5.049705505E-2,1.010939884E1,1.090366483E0
3.000876042E0,-1.216939837E-2,1.016209984E1,1.075993538E0
3.002880625E0,4.053112864E-2,1.021000862E1,1.090366483E0
3.004885208E0,6.927686930E-2,1.024354553E1,1.090366483E0
3.006889792E0,1.267683506E-1,1.027708244E1,1.090366483E0
3.008894375E0,1.746779233E-1,1.031540966E1,1.075993538E0
3.010898958E0,2.513332367E-1,1.036811066E1,1.090366483E0
3.012903542E0,3.040337563E-1,1.037290192E1,1.080784559E0
3.014908125E0,3.519433141E-1,1.039206505E1,1.066411734E0
3.016912708E0,4.238076806E-1,1.042560196E1,1.066411734E0
3.018917292E0,4.812991619E-1,1.043039322E1,1.066411734E0
3.020921875E0,5.483725667E-1,1.044476604E1,1.061620712E0
3.022926458E0,6.250278950E-1,1.045913887E1,1.095157385E0
3.024931042E0,6.873103380E-1,1.047351170E1,1.095157385E0
3.026935625E0,7.735475302E-1,1.048788452E1,1.109530330E0
3.028940208E0,8.406209350E-1,1.047351170E1,1.143067002E0
3.030944792E0,9.029033780E-1,1.046872044E1,1.143067002E0
3.032949375E0,9.939315915E-1,1.046872044E1,1.157439828E0
3.034953958E0,1.075377822E0,1.043997478E1,1.167021751E0
3.036958542E0,1.137660265E0,1.043518448E1,1.190976620E0
3.038963125E0,1.185569882E0,1.041602039E1,1.214931369E0
3.040967708E0,1.252643228E0,1.038248348E1,1.243677139E0
3.042972292E0,1.334089518E0,1.034894657E1,1.262840986E0
3.044976875E0,1.386790037E0,1.032499218E1,1.305959582E0
3.046981458E0,1.434699655E0,1.028666401E1,1.320332408E0
3.048986042E0,1.501773000E0,1.023396397E1,1.325123429E0
3.050990625E0,1.554473519E0,1.017647266E1,1.334705353E0
3.052995208E0,1.611965060E0,1.014293575E1,1.373032928E0
3.054999792E0,1.683829427E0,1.009023476E1,1.406569719E0
3.057004375E0,1.741320848E0,1.003274345E1,1.401778698E0
3.059008958E0,1.808394313E0,9.989624977E0,1.420942545E0
3.061013542E0,1.889840603E0,9.917760849E0,1.435315371E0
3.063018125E0,1.961704850E0,9.879432678E0,1.473643064E0
3.065022708E0,2.014405489E0,9.826732635E0,1.478433967E0
3.067027292E0,2.052733183E0,9.754868507E0,1.502388835E0
3.069031875E0,2.115015507E0,9.721331596E0,1.502388835E0
3.071036458E0,2.186879873E0,9.668630600E0,1.526343584E0
3.073041042E0,2.239580393E0,9.625512123E0,1.531134605E0
3.075045625E0,2.311444759E0,9.553647995E0,1.540716410E0
3.077050208E0,2.383309126E0,9.520111084E0,1.535925508E0
3.079054792E0,2.431218624E0,9.476992607E0,1.545507431E0
3.081059375E0,2.512665033E0,9.419501305E0,1.550298333E0
3.083063958E0,2.560574532E0,9.395545959E0,1.564671278E0
3.085068542E0,2.594111204E0,9.333264351E0,1.564671278E0
3.087073125E0,2.661184549E0,9.299727440E0,1.564671278E0
3.089077708E0,2.689930439E0,9.242236137E0,1.555089355E0
3.091082292E0,2.757003784E0,9.199116707E0,1.545507431E0
3.093086875E0,2.780958652E0,9.141625404E0,1.540716410E0
3.095091458E0,2.838449955E0,9.108088493E0,1.540716410E0
3.097096042E0,2.871986866E0,9.064970016E0,1.531134605E0
3.099100625E0,2.905523539E0,9.031434059E0,1.502388835E0
3.101105208E0,2.943850994E0,8.988314629E0,1.488015890E0
3.103109792E0,2.996551752E0,8.940405846E0,1.464061141E0
3.105114375E0,3.015715361E0,8.911659241E0,1.449688315E0
3.107118958E0,3.044461250E0,8.873332024E0,1.435315371E0
3.109123542E0,3.077997923E0,8.844586372E0,1.416151524E0
3.111128125E0,3.116325617E0,8.830213547E0,1.382614851E0
3.113132708E0,3.140280247E0,8.801467896E0,1.373032928E0
3.115137292E0,3.178607941E0,8.796676636E0,1.334705353E0
3.117141875E0,3.192980766E0,8.787095070E0,1.310750484E0
3.119146458E0,3.221726656E0,8.791885376E0,1.286795735E0
3.121151094E0,3.255263329E0,8.787095070E0,1.277213812E0
3.123155729E0,3.255263329E0,8.811049461E0,1.234095216E0
3.125160365E0,3.284008980E0,8.825422287E0,1.200558424E0
3.127165000E0,3.303172827E0,8.863750458E0,1.167021751E0
3.129169635E0,3.322336674E0,8.863750458E0,1.147857904E0
3.131174271E0,3.322336674E0,8.916450500E0,1.080784559E0
3.133178906E0,3.341500521E0,8.969151497E0,1.018502116E0
3.135183542E0,3.346291542E0,9.002687454E0,9.897563457E-1
3.137188177E0,3.370246172E0,9.041015625E0,9.514287114E-1
3.139192813E0,3.375037193E0,9.088925362E0,9.178919792E-1
3.141197448E0,3.375037193E0,9.132043839E0,9.035190940E-1
3.143202083E0,3.375037193E0,9.151207924E0,8.220728636E-1
3.145206719E0,3.375037193E0,9.199116707E0,8.076999784E-1
3.147211354E0,3.351082563E0,9.247026443E0,7.645813823E-1
3.149215990E0,3.336709499E0,9.256608963E0,7.214627862E-1
3.151220625E0,3.322336674E0,9.290144920E0,6.927170157E-1
3.153225260E0,3.312754869E0,9.314100266E0,6.783441305E-1
3.155229896E0,3.269636154E0,9.333264351E0,6.639712453E-1
3.157234531E0,3.260054350E0,9.318890572E0,6.400164962E-1
3.159239167E0,3.216935635E0,9.338054657E0,6.448074579E-1
3.161243802E0,3.197771788E0,9.333264351E0,6.112707257E-1
3.163248438E0,3.178607941E0,9.318890572E0,6.352255344E-1
3.165253073E0,3.149862289E0,9.314100266E0,6.591803432E-1
3.167257708E0,3.130698442E0,9.280563354E0,6.639712453E-1
3.169262344E0,3.121116638E0,9.280563354E0,6.735531688E-1
3.171266979E0,3.092370749E0,9.242236137E0,7.166718245E-1
3.173271615E0,3.058834076E0,9.227863312E0,7.549994588E-1
3.175276250E0,3.034879208E0,9.194326401E0,8.124909401E-1
3.177280885E0,3.006133556E0,9.160789490E0,8.412366509E-1
3.179285521E0,3.020506382E0,9.136835098E0,8.891462684E-1
3.181290156E0,3.010924578E0,9.117671013E0,9.178919792E-1
3.183294792E0,2.986969709E0,9.108088493E0,9.610105753E-1
3.185299427E0,2.953433037E0,9.093715668E0,1.008920193E0
3.187304063E0,2.924687386E0,9.074552536E0,1.032874942E0
3.189308698E0,2.905523539E0,9.041015625E0,1.090366483E0
3.191313333E0,2.881568670E0,9.055388451E0,1.119112253E0
3.193317969E0,2.881568670E0,9.045806885E0,1.138275981E0
3.195322552E0,2.848031998E0,9.026642799E0,1.147857904E0
3.197327135E0,2.809704304E0,9.017060280E0,1.171812773E0
3.199331719E0,2.790540457E0,9.026642799E0,1.176603675E0
3.201336302E0,2.776167631E0,9.026642799E0,1.186185598E0
3.203340885E0,2.766585588E0,9.007478714E0,1.200558424E0
3.205345469E0,2.728258133E0,9.002687454E0,1.210140347E0
3.207350052E0,2.699512243E0,8.988314629E0,1.200558424E0
3.209354635E0,2.694721222E0,8.983524323E0,1.186185598E0
3.211359219E0,2.656393766E0,8.978733063E0,1.181394696E0
3.213363802E0,2.642020702E0,8.983524323E0,1.171812773E0
3.215368385E0,2.632438898E0,8.964360237E0,1.167021751E0
3.217372969E0,2.603693247E0,8.993105888E0,1.143067002E0
3.219377552E0,2.574947357E0,8.988314629E0,1.138275981E0
3.221382135E0,2.555783510E0,9.007478714E0,1.114321232E0
3.223386719E0,2.517455816E0,8.997897148E0,1.061620712E0
3.225391302E0,2.483919144E0,9.021851540E0,1.071202636E0
3.227395885E0,2.464755297E0,9.050597191E0,1.052038789E0
3.229400469E0,2.431218624E0,9.064970016E0,1.013711214E0
3.231405052E0,2.392890930E0,9.093715668E0,1.008920193E0
3.233409635E0,2.359354258E0,9.122462273E0,9.801744223E-1
3.235414219E0,2.325817585E0,9.141625404E0,9.753834605E-1
3.237418802E0,2.268326044E0,9.160789490E0,9.514287114E-1
3.239423385E0,2.244371414E0,9.199116707E0,9.514287114E-1
3.241427969E0,2.210834742E0,9.213489532E0,9.274739027E-1
3.243432552E0,2.191670895E0,9.227863312E0,9.274739027E-1
3.245437135E0,2.143761158E0,9.247026443E0,9.131010175E-1
3.247441719E0,2.110224485E0,9.275772095E0,9.418467879E-1
3.249446302E0,2.071897030E0,9.294936180E0,9.370558262E-1
3.251450885E0,2.043151140E0,9.309309006E0,9.274739027E-1
3.253455469E0,2.014405489E0,9.328473091E0,9.562196136E-1
3.255460052E0,1.976077795E0,9.342845917E0,9.514287114E-1
3.257464635E0,1.932959199E0,9.357218742E0,9.562196136E-1
3.259469219E0,1.913795352E0,9.385964394E0,9.897563457E-1
3.261473802E0,1.875467658E0,9.381173134E0,9.993382692E-1
3.263478385E0,1.841930985E0,9.400337219E0,1.023293018E0
3.265482969E0,1.822767138E0,9.400337219E0,1.023293018E0
3.267487552E0,1.779648542E0,9.405128479E0,1.047247887E0
3.269492135E0,1.760484695E0,9.409918785E0,1.056829810E0
3.271496719E0,1.736529946E0,9.419501305E0,1.080784559E0
3.273501302E0,1.707784176E0,9.438665390E0,1.114321232E0
3.275505885E0,1.683829427E0,9.438665390E0,1.133485079E0
3.277510469E0,1.679038405E0,9.438665390E0,1.143067002E0
3.279515052E0,1.659874558E0,9.429082870E0,1.167021751E0
3.281519635E0,1.626337886E0,9.433874130E0,1.186185598E0
3.283524219E0,1.640710831E0,9.438665390E0,1.195767522E0
3.285528802E0,1.631128907E0,9.443455696E0,1.210140347E0
3.287533385E0,1.588010311E0,9.438665390E0,1.214931369E0
3.289537969E0,1.602383137E0,9.457828522E0,1.238886118E0
3.291542552E0,1.597592115E0,9.462619781E0,1.282004833E0
3.293547135E0,1.578428388E0,9.472201347E0,1.272422910E0
3.295551719E0,1.588010311E0,9.486574173E0,1.286795735E0
3.297556302E0,1.564055443E0,9.500946999E0,1.277213812E0
3.299560885E0,1.573637366E0,9.505738258E0,1.282004833E0
3.301565469E0,1.568846464E0,9.524902344E0,1.286795735E0
3.303570052E0,1.573637366E0,9.544066429E0,1.286795735E0
3.305574635E0,1.573637366E0,9.563229561E0,1.262840986E0
3.307579219E0,1.573637366E0,9.568020821E0,1.282004833E0
3.309583802E0,1.588010311E0,9.582393646E0,1.248468041E0
3.311588385E0,1.549682617E0,9.620721817E0,1.253259063E0
3.313592969E0,1.544891596E0,9.639884949E0,1.248468041E0
3.315597552E0,1.544891596E0,9.668630600E0,1.238886118E0
3.317602135E0,1.535309672E0,9.683003426E0,1.224513292E0
3.319606719E0,1.549682617E0,9.711749077E0,1.205349445E0
3.321611302E0,1.511354923E0,9.764450073E0,1.176603675E0
3.323615885E0,1.506564021E0,9.750077248E0,1.176603675E0
3.325620469E0,1.496982098E0,9.774031639E0,1.162230849E0
3.327625052E0,1.468236327E0,9.778822899E0,1.171812773E0
3.329629635E0,1.468236327E0,9.788404465E0,1.143067002E0
3.331634219E0,1.444281578E0,9.793195724E0,1.143067002E0
3.333638854E0,1.449072480E0,9.807568550E0,1.143067002E0
3.335643490E0,1.425117731E0,9.831523895E0,1.133485079E0
3.337648125E0,1.405953884E0,9.826732635E0,1.147857904E0
3.339652760E0,1.410744786E0,9.797986984E0,1.152648926E0
3.341657396E0,1.405953884E0,9.802777290E0,1.167021751E0
3.343662031E0,1.410744786E0,9.793195724E0,1.171812773E0
3.345666667E0,1.391581059E0,9.759658813E0,1.200558424E0
3.347671302E0,1.401162982E0,9.769241333E0,1.210140347E0
3.349675938E0,1.405953884E0,9.774031639E0,1.219722271E0
3.351680573E0,1.420326710E0,9.745285988E0,1.219722271E0
3.353685208E0,1.415535808E0,9.745285988E0,1.243677139E0
3.355689844E0,1.439490557E0,9.750077248E0,1.277213812E0
3.357694479E0,1.453863502E0,9.726122856E0,1.286795735E0
3.359699115E0,1.439490557E0,9.711749077E0,1.301168561E0
3.361703750E0,1.477818251E0,9.716540337E0,1.329914331E0
3.363708385E0,1.496982098E0,9.716540337E0,1.349078178E0
3.365713021E0,1.520936847E0,9.726122856E0,1.382614851E0
3.367717656E0,1.520936847E0,9.711749077E0,1.377823949E0
3.369722292E0,1.549682617E0,9.740495682E0,1.392196774E0
3.371726927E0,1.592801213E0,9.726122856E0,1.387405872E0
3.373731563E0,1.607174039E0,9.754868507E0,1.396987796E0
3.375736198E0,1.635919809E0,9.774031639E0,1.387405872E0
3.377740833E0,1.664665580E0,9.793195724E0,1.396987796E0
3.379745469E0,1.683829427E0,9.807568550E0,1.401778698E0
3.381750104E0,1.693411350E0,9.836314201E0,1.396987796E0
3.383754740E0,1.722157001E0,9.850687027E0,1.392196774E0
3.385759375E0,1.741320848E0,9.874642372E0,1.368242025E0
3.387764010E0,1.770066619E0,9.893805504E0,1.353869081E0
3.389768646E0,1.784439445E0,9.912969589E0,1.339496255E0
3.391773281E0,1.808394313E0,9.946506500E0,1.334705353E0
3.393777917E0,1.827558160E0,9.956088066E0,1.315541506E0
3.395782552E0,1.846721888E0,9.975252151E0,1.301168561E0
3.397787188E0,1.851512909E0,9.994416237E0,1.277213812E0
3.399791823E0,1.865885735E0,1.000878906E1,1.258049965E0
3.401796458E0,1.865885735E0,1.002795315E1,1.234095216E0
3.403801094E0,1.899422407E0,1.002795315E1,1.224513292E0
3.405805729E0,1.899422407E0,1.002316189E1,1.205349445E0
3.407810365E0,1.909004331E0,1.001837063E1,1.195767522E0
3.409815000E0,1.894631505E0,9.999206543E0,1.186185598E0
3.411819635E0,1.899422407E0,1.001837063E1,1.186185598E0
3.413824219E0,1.904213428E0,1.000878906E1,1.162230849E0
3.415828802E0,1.909004331E0,9.975252151E0,1.176603675E0
3.417833385E0,1.889840603E0,9.951297760E0,1.157439828E0
3.419837969E0,1.894631505E0,9.960879326E0,1.176603675E0
3.421842552E0,1.880258679E0,9.936924934E0,1.167021751E0
3.423847135E0,1.880258679E0,9.927342415E0,1.190976620E0
3.425851719E0,1.841930985E0,9.912969589E0,1.210140347E0
3.427856302E0,1.851512909E0,9.908178329E0,1.205349445E0
3.429860885E0,1.832349062E0,9.903388023E0,1.224513292E0
3.431865469E0,1.808394313E0,9.898596764E0,1.238886118E0
3.433870052E0,1.794021368E0,9.879432678E0,1.262840986E0
3.435874635E0,1.794021368E0,9.874642372E0,1.277213812E0
3.437879219E0,1.770066619E0,9.865059853E0,1.296377659E0
3.439883802E0,1.736529946E0,9.884223938E0,1.296377659E0
3.441888385E0,1.717366099E0,9.889015198E0,1.315541506E0
3.443892969E0,1.669456482E0,9.893805504E0,1.320332408E0
3.445897552E0,1.679038405E0,9.884223938E0,1.334705353E0
3.447902135E0,1.640710831E0,9.884223938E0,1.339496255E0
3.449906719E0,1.626337886E0,9.884223938E0,1.334705353E0
3.451911302E0,1.588010311E0,9.898596764E0,1.349078178E0
3.453915885E0,1.568846464E0,9.912969589E0,1.353869081E0
3.455920469E0,1.549682617E0,9.903388023E0,1.334705353E0
3.457925052E0,1.520936847E0,9.889015198E0,1.329914331E0
3.459929635E0,1.506564021E0,9.893805504E0,1.315541506E0
3.461934219E0,1.487400174E0,9.903388023E0,1.329914331E0
3.463938802E0,1.477818251E0,9.908178329E0,1.325123429E0
3.465943385E0,1.453863502E0,9.912969589E0,1.301168561E0
3.467947969E0,1.434699655E0,9.917760849E0,1.296377659E0
3.469952552E0,1.410744786E0,9.922552109E0,1.267631888E0
3.471957135E0,1.396371961E0,9.908178329E0,1.248468041E0
3.473961719E0,1.348462343E0,9.912969589E0,1.234095216E0
3.475966302E0,1.338880539E0,9.932133675E0,1.219722271E0
3.477970885E0,1.329298615E0,9.941715240E0,1.200558424E0
3.479975469E0,1.290970922E0,9.951297760E0,1.181394696E0
3.481980052E0,1.281388998E0,9.932133675E0,1.171812773E0
3.483984635E0,1.276598096E0,9.956088066E0,1.162230849E0
3.485989219E0,1.247852325E0,9.951297760E0,1.157439828E0
3.487993802E0,1.223897457E0,9.951297760E0,1.123903155E0
3.489998385E0,1.223897457E0,9.956088066E0,1.123903155E0
3.492002969E0,1.204733729E0,9.975252151E0,1.119112253E0
3.494007552E0,1.175987959E0,9.970460892E0,1.099948406E0
3.496012135E0,1.156824112E0,9.965670586E0,1.114321232E0
3.498016719E0,1.137660265E0,9.980043411E0,1.104739308E0
3.500021302E0,1.132869363E0,9.946506500E0,1.104739308E0
3.502025885E0,1.108914495E0,9.965670586E0,1.109530330E0
3.504030469E0,1.099332571E0,9.960879326E0,1.109530330E0
3.506035052E0,1.104123592E0,9.975252151E0,1.114321232E0
3.508039635E0,1.099332571E0,9.960879326E0,1.138275981E0
3.510044219E0,1.075377822E0,9.965670586E0,1.143067002E0
3.512048802E0,1.065795898E0,9.970460892E0,1.143067002E0
3.514053385E0,1.070586920E0,9.980043411E0,1.186185598E0
3.516057969E0,1.089750767E0,9.980043411E0,1.186185598E0
3.518062552E0,1.080168843E0,9.980043411E0,1.195767522E0
3.520067135E0,1.089750767E0,9.980043411E0,1.200558424E0
3.522071719E0,1.080168843E0,9.984833717E0,1.224513292E0
3.524076302E0,1.094541669E0,9.994416237E0,1.224513292E0
3.526080885E0,1.094541669E0,9.989624977E0,1.253259063E0
3.528085469E0,1.099332571E0,9.984833717E0,1.272422910E0
3.530090052E0,1.113705516E0,9.989624977E0,1.262840986E0
3.532094635E0,1.132869363E0,9.980043411E0,1.296377659E0
3.534099219E0,1.152033210E0,9.965670586E0,1.301168561E0
3.536103802E0,1.171196938E0,9.956088066E0,1.315541506E0
3.538108438E0,1.166406035E0,9.965670586E0,1.334705353E0
3.540113073E0,1.190360785E0,9.946506500E0,1.353869081E0
3.542117708E0,1.214315653E0,9.932133675E0,1.363451004E0
3.544122344E0,1.214315653E0,9.917760849E0,1.358660102E0
3.546126979E0,1.233479381E0,9.893805504E0,1.353869081E0
3.548131615E0,1.247852325E0,9.884223938E0,1.373032928E0
3.550136250E0,1.276598096E0,9.869851112E0,1.392196774E0
3.552140885E0,1.290970922E0,9.874642372E0,1.401778698E0
3.554145521E0,1.310134768E0,9.855478287E0,1.416151524E0
3.556150156E0,1.319716692E0,9.850687027E0,1.401778698E0
3.558154792E0,1.329298615E0,9.831523895E0,1.406569719E0
3.560159427E0,1.367626190E0,9.841105461E0,1.406569719E0
3.562164063E0,1.381999135E0,9.845896721E0,1.411360621E0
3.564168698E0,1.401162982E0,9.841105461E0,1.396987796E0
3.566173333E0,1.410744786E0,9.845896721E0,1.392196774E0
3.568177969E0,1.444281578E0,9.845896721E0,1.377823949E0
3.570182604E0,1.453863502E0,9.841105461E0,1.387405872E0
3.572187240E0,1.473027229E0,9.865059853E0,1.363451004E0
3.574191875E0,1.477818251E0,9.874642372E0,1.358660102E0
3.576196510E0,1.525727868E0,9.860269547E0,1.334705353E0
3.578201146E0,1.540100694E0,9.869851112E0,1.320332408E0
3.580205781E0,1.544891596E0,9.874642372E0,1.315541506E0
3.582210417E0,1.564055443E0,9.869851112E0,1.325123429E0
3.584215052E0,1.568846464E0,9.903388023E0,1.291586637E0
3.586219688E0,1.602383137E0,9.898596764E0,1.262840986E0
3.588224323E0,1.607174039E0,9.917760849E0,1.267631888E0
3.590228958E0,1.611965060E0,9.908178329E0,1.238886118E0
3.592233594E0,1.635919809E0,9.898596764E0,1.238886118E0
3.594238229E0,1.626337886E0,9.903388023E0,1.238886118E0
3.596242865E0,1.659874558E0,9.908178329E0,1.229304194E0
3.598247500E0,1.645501733E0,9.903388023E0,1.238886118E0
3.600252135E0,1.669456482E0,9.893805504E0,1.210140347E0
3.602256771E0,1.645501733E0,9.879432678E0,1.214931369E0
3.604261406E0,1.640710831E0,9.889015198E0,1.224513292E0
3.606266042E0,1.626337886E0,9.869851112E0,1.224513292E0
3.608270677E0,1.640710831E0,9.869851112E0,1.234095216E0
3.610275313E0,1.640710831E0,9.860269547E0,1.229304194E0
3.612279948E0,1.635919809E0,9.831523895E0,1.214931369E0
3.614284583E0,1.631128907E0,9.821941376E0,1.248468041E0
3.616289219E0,1.621546984E0,9.802777290E0,1.243677139E0
3.618293854E0,1.607174039E0,9.793195724E0,1.238886118E0
3.620298490E0,1.592801213E0,9.764450073E0,1.272422910E0
3.622303073E0,1.607174039E0,9.769241333E0,1.282004833E0
3.624307656E0,1.573637366E0,9.735704422E0,1.286795735E0
3.626312240E0,1.573637366E0,9.735704422E0,1.301168561E0
3.628316823E0,1.554473519E0,9.716540337E0,1.305959582E0
3.630321406E0,1.540100694E0,9.716540337E0,1.320332408E0
3.632325990E0,1.535309672E0,9.702167511E0,1.320332408E0
3.634330573E0,1.535309672E0,9.706958771E0,1.310750484E0
3.636335156E0,1.511354923E0,9.692585945E0,1.320332408E0
3.638339740E0,1.520936847E0,9.687794685E0,1.344287276E0
3.640344323E0,1.501773000E0,9.668630600E0,1.329914331E0
3.642348906E0,1.496982098E0,9.678213120E0,1.329914331E0
3.644353490E0,1.482609153E0,9.683003426E0,1.334705353E0
3.646358073E0,1.477818251E0,9.687794685E0,1.339496255E0
3.648362656E0,1.477818251E0,9.668630600E0,1.334705353E0
3.650367240E0,1.473027229E0,9.673421860E0,1.329914331E0
3.652371823E0,1.449072480E0,9.659049034E0,1.320332408E0
3.654376406E0,1.449072480E0,9.683003426E0,1.329914331E0
3.656380990E0,1.444281578E0,9.683003426E0,1.301168561E0
3.658385573E0,1.434699655E0,9.673421860E0,1.305959582E0
3.660390156E0,1.434699655E0,9.663840294E0,1.320332408E0
3.662394740E0,1.429908633E0,9.644676208E0,1.296377659E0
3.664399323E0,1.415535808E0,9.659049034E0,1.286795735E0
3.666403906E0,1.405953884E0,9.649467468E0,1.282004833E0
3.668408490E0,1.391581059E0,9.649467468E0,1.258049965E0
3.670413073E0,1.396371961E0,9.654257774E0,1.262840986E0
3.672417656E0,1.381999135E0,9.630303383E0,1.243677139E0
3.674425417E0,1.377208114E0,9.635094643E0,1.234095216E0
3.676427396E0,1.381999135E0,9.644676208E0,1.243677139E0
3.678429479E0,1.367626190E0,9.635094643E0,1.214931369E0
3.680431719E0,1.372417212E0,9.620721817E0,1.214931369E0
3.682434219E0,1.367626190E0,9.611139297E0,1.205349445E0
3.684437083E0,1.367626190E0,9.639884949E0,1.210140347E0
3.686440365E0,1.362835288E0,9.601557732E0,1.205349445E0
3.688444063E0,1.358044267E0,9.625512123E0,1.200558424E0
3.690448229E0,1.358044267E0,9.620721817E0,1.195767522E0
3.692452865E0,1.353253365E0,9.611139297E0,1.186185598E0
3.694457917E0,1.348462343E0,9.630303383E0,1.181394696E0
3.696463385E0,1.358044267E0,9.620721817E0,1.190976620E0
3.698469219E0,1.353253365E0,9.620721817E0,1.200558424E0
3.700475313E0,1.348462343E0,9.625512123E0,1.195767522E0
3.702481615E0,1.358044267E0,9.635094643E0,1.195767522E0
3.704488073E0,1.358044267E0,9.625512123E0,1.176603675E0
3.706494583E0,1.362835288E0,9.630303383E0,1.157439828E0
3.708501094E0,1.362835288E0,9.639884949E0,1.167021751E0
3.710505729E0,1.353253365E0,9.639884949E0,1.167021751E0
3.712510313E0,1.358044267E0,9.639884949E0,1.176603675E0
3.714514896E0,1.348462343E0,9.630303383E0,1.162230849E0
3.716519479E0,1.343671441E0,9.620721817E0,1.167021751E0
3.718524063E0,1.343671441E0,9.635094643E0,1.171812773E0
3.720528646E0,1.324507594E0,9.635094643E0,1.171812773E0
3.722533229E0,1.324507594E0,9.635094643E0,1.186185598E0
3.724537813E0,1.353253365E0,9.635094643E0,1.190976620E0
3.726542396E0,1.314925671E0,9.630303383E0,1.176603675E0
3.728546979E0,1.334089518E0,9.630303383E0,1.195767522E0
3.730551563E0,1.324507594E0,9.663840294E0,1.205349445E0
3.732556146E0,1.305343747E0,9.635094643E0,1.195767522E0
3.734560729E0,1.300552845E0,9.639884949E0,1.195767522E0
3.736565313E0,1.310134768E0,9.649467468E0,1.219722271E0
3.738569896E0,1.314925671E0,9.635094643E0,1.214931369E0
3.740574479E0,1.300552845E0,9.654257774E0,1.224513292E0
3.742579063E0,1.310134768E0,9.644676208E0,1.238886118E0
3.744583646E0,1.286179900E0,9.663840294E0,1.243677139E0
3.746588229E0,1.281388998E0,9.663840294E0,1.243677139E0
3.748592813E0,1.290970922E0,9.663840294E0,1.229304194E0
3.750597396E0,1.267016172E0,9.663840294E0,1.243677139E0
3.752601979E0,1.267016172E0,9.649467468E0,1.253259063E0
3.754606563E0,1.267016172E0,9.663840294E0,1.243677139E0
3.756611146E0,1.243061304E0,9.683003426E0,1.253259063E0
3.758615729E0,1.257434249E0,9.678213120E0,1.253259063E0
3.760620313E0,1.262225151E0,9.663840294E0,1.258049965E0
3.762624896E0,1.233479381E0,9.673421860E0,1.272422910E0
3.764629479E0,1.228688478E0,9.683003426E0,1.248468041E0
3.766634063E0,1.238270402E0,9.663840294E0,1.272422910E0
3.768638646E0,1.233479381E0,9.668630600E0,1.262840986E0
3.770643229E0,1.209524632E0,9.663840294E0,1.277213812E0
3.772647813E0,1.214315653E0,9.654257774E0,1.291586637E0
3.774652396E0,1.223897457E0,9.663840294E0,1.262840986E0
3.776656979E0,1.214315653E0,9.668630600E0,1.286795735E0
3.778661563E0,1.219106555E0,9.639884949E0,1.272422910E0
3.780666146E0,1.199942708E0,9.663840294E0,1.282004833E0
3.782670729E0,1.209524632E0,9.639884949E0,1.272422910E0
3.784675313E0,1.180778861E0,9.635094643E0,1.291586637E0
3.786679896E0,1.171196938E0,9.635094643E0,1.258049965E0
3.788684479E0,1.190360785E0,9.630303383E0,1.277213812E0
3.790689063E0,1.190360785E0,9.630303383E0,1.282004833E0
3.792693646E0,1.190360785E0,9.611139297E0,1.286795735E0
3.794698229E0,1.185569882E0,9.625512123E0,1.277213812E0
3.796702813E0,1.204733729E0,9.625512123E0,1.277213812E0
3.798707396E0,1.180778861E0,9.606348038E0,1.282004833E0
3.800711979E0,1.190360785E0,9.625512123E0,1.282004833E0
3.802716563E0,1.204733729E0,9.630303383E0,1.262840986E0
3.804721146E0,1.195151806E0,9.630303383E0,1.267631888E0
3.806725729E0,1.214315653E0,9.625512123E0,1.262840986E0
3.808730313E0,1.223897457E0,9.644676208E0,1.258049965E0
3.810734896E0,1.228688478E0,9.639884949E0,1.258049965E0
3.812739479E0,1.209524632E0,9.644676208E0,1.258049965E0
3.814744063E0,1.228688478E0,9.644676208E0,1.234095216E0
3.816748646E0,1.243061304E0,9.639884949E0,1.234095216E0
3.818753229E0,1.262225151E0,9.644676208E0,1.238886118E0
3.820757813E0,1.262225151E0,9.644676208E0,1.224513292E0
3.822762396E0,1.286179900E0,9.639884949E0,1.205349445E0
3.824767031E0,1.281388998E0,9.649467468E0,1.214931369E0
3.826771667E0,1.290970922E0,9.635094643E0,1.200558424E0
3.828776302E0,1.334089518E0,9.639884949E0,1.200558424E0
3.830780938E0,1.329298615E0,9.644676208E0,1.195767522E0
3.832785573E0,1.358044267E0,9.635094643E0,1.195767522E0
3.834790208E0,1.343671441E0,9.635094643E0,1.190976620E0
3.836794844E0,1.367626190E0,9.620721817E0,1.181394696E0
3.838799479E0,1.377208114E0,9.611139297E0,1.190976620E0
3.840804115E0,1.386790037E0,9.611139297E0,1.210140347E0
3.842808750E0,1.377208114E0,9.582393646E0,1.190976620E0
3.844813385E0,1.396371961E0,9.577602386E0,1.205349445E0
3.846818021E0,1.405953884E0,9.568020821E0,1.176603675E0
3.848822656E0,1.410744786E0,9.563229561E0,1.200558424E0
3.850827292E0,1.434699655E0,9.568020821E0,1.195767522E0
3.852831927E0,1.439490557E0,9.548856735E0,1.186185598E0
3.854836563E0,1.453863502E0,9.544066429E0,1.186185598E0
3.856841198E0,1.439490557E0,9.539275169E0,1.181394696E0
3.858845833E0,1.468236327E0,9.548856735E0,1.190976620E0
3.860850469E0,1.463445425E0,9.520111084E0,1.186185598E0
3.862855104E0,1.482609153E0,9.524902344E0,1.195767522E0
3.864859740E0,1.506564021E0,9.529693604E0,1.200558424E0
3.866864375E0,1.487400174E0,9.524902344E0,1.186185598E0
3.868869010E0,1.468236327E0,9.529693604E0,1.190976620E0
3.870873646E0,1.501773000E0,9.529693604E0,1.205349445E0
3.872878281E0,1.525727868E0,9.524902344E0,1.205349445E0
3.874882917E0,1.516145945E0,9.548856735E0,1.205349445E0
3.876887552E0,1.520936847E0,9.539275169E0,1.219722271E0
3.878892188E0,1.525727868E0,9.558439255E0,1.200558424E0
3.880896823E0,1.525727868E0,9.553647995E0,1.190976620E0
3.882901458E0,1.540100694E0,9.572812080E0,1.219722271E0
3.884906094E0,1.549682617E0,9.577602386E0,1.210140347E0
3.886910729E0,1.540100694E0,9.568020821E0,1.205349445E0
3.888915365E0,1.544891596E0,9.572812080E0,1.205349445E0
3.890920000E0,1.559264541E0,9.582393646E0,1.210140347E0
3.892924635E0,1.554473519E0,9.587184906E0,1.219722271E0
3.894929271E0,1.559264541E0,9.587184906E0,1.210140347E0
3.896933906E0,1.564055443E0,9.611139297E0,1.200558424E0
3.898938542E0,1.559264541E0,9.611139297E0,1.205349445E0
3.900943177E0,1.564055443E0,9.615930557E0,1.186185598E0
3.902947813E0,1.568846464E0,9.620721817E0,1.195767522E0
3.904952448E0,1.564055443E0,9.639884949E0,1.200558424E0
3.906957083E0,1.568846464E0,9.639884949E0,1.171812773E0
3.908961719E0,1.559264541E0,9.649467468E0,1.167021751E0
3.910966354E0,1.588010311E0,9.649467468E0,1.167021751E0
3.912970938E0,1.564055443E0,9.654257774E0,1.167021751E0
3.914975521E0,1.578428388E0,9.654257774E0,1.167021751E0
3.916980104E0,1.568846464E0,9.692585945E0,1.171812773E0
3.918984688E0,1.578428388E0,9.659049034E0,1.167021751E0
3.920989271E0,1.583219290E0,9.697376251E0,1.176603675E0
3.922993854E0,1.549682617E0,9.692585945E0,1.171812773E0
3.924998438E0,1.573637366E0,9.683003426E0,1.157439828E0
3.927003021E0,1.573637366E0,9.706958771E0,1.176603675E0
3.929007604E0,1.554473519E0,9.716540337E0,1.190976620E0
3.931012188E0,1.559264541E0,9.692585945E0,1.190976620E0
3.933016771E0,1.554473519E0,9.702167511E0,1.181394696E0
3.935021354E0,1.549682617E0,9.706958771E0,1.181394696E0
3.937025938E0,1.530518770E0,9.711749077E0,1.195767522E0
3.939030521E0,1.535309672E0,9.726122856E0,1.214931369E0
3.941035104E0,1.530518770E0,9.730913162E0,1.210140347E0
3.943039688E0,1.530518770E0,9.721331596E0,1.229304194E0
3.945044271E0,1.520936847E0,9.726122856E0,1.238886118E0
3.947048854E0,1.530518770E0,9.721331596E0,1.234095216E0
3.949053438E0,1.535309672E0,9.730913162E0,1.248468041E0
3.951058021E0,1.516145945E0,9.745285988E0,1.253259063E0
3.953062604E0,1.525727868E0,9.735704422E0,1.253259063E0
3.955067188E0,1.520936847E0,9.750077248E0,1.267631888E0
3.957071771E0,1.530518770E0,9.759658813E0,1.282004833E0
3.959076354E0,1.530518770E0,9.759658813E0,1.267631888E0
3.961080938E0,1.530518770E0,9.750077248E0,1.282004833E0
3.963085521E0,1.535309672E0,9.754868507E0,1.286795735E0
3.965090104E0,1.525727868E0,9.774031639E0,1.291586637E0
3.967094688E0,1.544891596E0,9.778822899E0,1.291586637E0
3.969099271E0,1.549682617E0,9.769241333E0,1.291586637E0
3.971103854E0,1.559264541E0,9.764450073E0,1.291586637E0
3.973108438E0,1.549682617E0,9.783614159E0,1.305959582E0
3.975113021E0,1.544891596E0,9.783614159E0,1.301168561E0
3.977117604E0,1.554473519E0,9.774031639E0,1.320332408E0
3.979122188E0,1.578428388E0,9.764450073E0,1.305959582E0
3.981126771E0,1.578428388E0,9.759658813E0,1.315541506E0
3.983131354E0,1.568846464E0,9.769241333E0,1.320332408E0
3.985135938E0,1.583219290E0,9.759658813E0,1.320332408E0
3.987140521E0,1.573637366E0,9.754868507E0,1.310750484E0
3.989145104E0,1.578428388E0,9.735704422E0,1.310750484E0
3.991149688E0,1.583219290E0,9.730913162E0,1.320332408E0
3.993154271E0,1.588010311E0,9.721331596E0,1.325123429E0
3.995158854E0,1.592801213E0,9.730913162E0,1.334705353E0
3.997163438E0,1.588010311E0,9.730913162E0,1.320332408E0
3.999168021E0,1.592801213E0,9.716540337E0,1.320332408E0
4.001172604E0,1.607174039E0,9.716540337E0,1.325123429E0
4.003177188E0,1.588010311E0,9.702167511E0,1.310750484E0
4.005181771E0,1.616755962E0,9.711749077E0,1.349078178E0
4.007186354E0,1.611965060E0,9.697376251E0,1.329914331E0
4.009190938E0,1.616755962E0,9.683003426E0,1.334705353E0
4.011195521E0,1.602383137E0,9.692585945E0,1.325123429E0
4.013200104E0,1.611965060E0,9.683003426E0,1.320332408E0
4.015204688E0,1.621546984E0,9.687794685E0,1.329914331E0
4.017209271E0,1.616755962E0,9.668630600E0,1.315541506E0
4.019213906E0,1.611965060E0,9.692585945E0,1.329914331E0
4.021218542E0,1.621546984E0,9.692585945E0,1.301168561E0
4.023223177E0,1.640710831E0,9.678213120E0,1.305959582E0
4.025227813E0,1.631128907E0,9.668630600E0,1.301168561E0
4.027232448E0,1.631128907E0,9.683003426E0,1.301168561E0
4.029237083E0,1.631128907E0,9.687794685E0,1.315541506E0
4.031241719E0,1.645501733E0,9.663840294E0,1.291586637E0
4.033246354E0,1.626337886E0,9.659049034E0,1.282004833E0
4.035250990E0,1.640710831E0,9.644676208E0,1.286795735E0
4.037255625E0,1.650292635E0,9.644676208E0,1.267631888E0
4.039260260E0,1.659874558E0,9.673421860E0,1.262840986E0
4.041264896E0,1.669456482E0,9.659049034E0,1.277213812E0
4.043269531E0,1.659874558E0,9.649467468E0,1.262840986E0
4.045274167E0,1.659874558E0,9.649467468E0,1.253259063E0
4.047278802E0,1.659874558E0,9.635094643E0,1.262840986E0
4.049283438E0,1.655083656E0,9.630303383E0,1.253259063E0
4.051288073E0,1.698202252E0,9.630303383E0,1.258049965E0
4.053292708E0,1.683829427E0,9.630303383E0,1.238886118E0
4.055293906E0,1.674247503E0,9.625512123E0,1.243677139E0
4.057295104E0,1.693411350E0,9.620721817E0,1.248468041E0
4.059296719E0,1.698202252E0,9.611139297E0,1.258049965E0
4.061298854E0,1.693411350E0,9.601557732E0,1.248468041E0
4.063301563E0,1.698202252E0,9.582393646E0,1.243677139E0
4.065304896E0,1.688620329E0,9.591975212E0,1.248468041E0
4.067308906E0,1.698202252E0,9.582393646E0,1.219722271E0
4.069313594E0,1.702993274E0,9.577602386E0,1.234095216E0
4.071318906E0,1.702993274E0,9.553647995E0,1.224513292E0
4.073324792E0,1.698202252E0,9.553647995E0,1.224513292E0
4.075331198E0,1.698202252E0,9.563229561E0,1.238886118E0
4.077338021E0,1.683829427E0,9.563229561E0,1.224513292E0
4.079345156E0,1.688620329E0,9.553647995E0,1.224513292E0
4.081352500E0,1.688620329E0,9.558439255E0,1.229304194E0
4.083359948E0,1.693411350E0,9.539275169E0,1.224513292E0
4.085367188E0,1.688620329E0,9.563229561E0,1.210140347E0
4.087371771E0,1.679038405E0,9.563229561E0,1.224513292E0
4.089376354E0,1.688620329E0,9.558439255E0,1.205349445E0
4.091380938E0,1.679038405E0,9.548856735E0,1.176603675E0
4.093385521E0,1.669456482E0,9.553647995E0,1.195767522E0
4.095390104E0,1.683829427E0,9.558439255E0,1.181394696E0
4.097394688E0,1.669456482E0,9.563229561E0,1.176603675E0
4.099399271E0,1.664665580E0,9.568020821E0,1.186185598E0
4.101403854E0,1.679038405E0,9.563229561E0,1.167021751E0
4.103408438E0,1.664665580E0,9.572812080E0,1.181394696E0
4.105413021E0,1.659874558E0,9.572812080E0,1.176603675E0
4.107417604E0,1.635919809E0,9.577602386E0,1.200558424E0
4.109422188E0,1.611965060E0,9.582393646E0,1.181394696E0
4.111426771E0,1.611965060E0,9.572812080E0,1.195767522E0
4.113431354E0,1.592801213E0,9.587184906E0,1.195767522E0
4.115435938E0,1.597592115E0,9.582393646E0,1.181394696E0
4.117440521E0,1.568846464E0,9.591975212E0,1.200558424E0
4.119445104E0,1.559264541E0,9.587184906E0,1.200558424E0
4.121449688E0,1.530518770E0,9.591975212E0,1.205349445E0
4.123454271E0,1.506564021E0,9.587184906E0,1.195767522E0
4.125458854E0,1.506564021E0,9.596766472E0,1.186185598E0
4.127463438E0,1.506564021E0,9.591975212E0,1.210140347E0
4.129468021E0,1.468236327E0,9.615930557E0,1.200558424E0
4.131472604E0,1.463445425E0,9.620721817E0,1.205349445E0
4.133477188E0,1.439490557E0,9.649467468E0,1.195767522E0
4.135481771E0,1.439490557E0,9.654257774E0,1.214931369E0
4.137486354E0,1.425117731E0,9.644676208E0,1.186185598E0
4.139490938E0,1.405953884E0,9.649467468E0,1.176603675E0
4.141495521E0,1.415535808E0,9.663840294E0,1.186185598E0
4.143500104E0,1.425117731E0,9.663840294E0,1.186185598E0
4.145504688E0,1.420326710E0,9.683003426E0,1.186185598E0
4.147509271E0,1.410744786E0,9.673421860E0,1.190976620E0
4.149513854E0,1.410744786E0,9.659049034E0,1.186185598E0
4.151518438E0,1.420326710E0,9.668630600E0,1.152648926E0
4.153523021E0,1.425117731E0,9.673421860E0,1.162230849E0
4.155527604E0,1.439490557E0,9.668630600E0,1.162230849E0
4.157532188E0,1.439490557E0,9.663840294E0,1.157439828E0
4.159536771E0,1.453863502E0,9.697376251E0,1.152648926E0
4.161541354E0,1.444281578E0,9.673421860E0,1.157439828E0
4.163545938E0,1.458654404E0,9.697376251E0,1.152648926E0
4.165550521E0,1.468236327E0,9.706958771E0,1.162230849E0
4.167555104E0,1.477818251E0,9.687794685E0,1.162230849E0
4.169559688E0,1.473027229E0,9.706958771E0,1.162230849E0
4.171564271E0,1.463445425E0,9.721331596E0,1.167021751E0
4.173568854E0,1.487400174E0,9.721331596E0,1.171812773E0
4.175573438E0,1.477818251E0,9.730913162E0,1.162230849E0
4.177578021E0,1.506564021E0,9.735704422E0,1.190976620E0
4.179582604E0,1.506564021E0,9.730913162E0,1.195767522E0
4.181587188E0,1.492191076E0,9.750077248E0,1.190976620E0
4.183591771E0,1.492191076E0,9.759658813E0,1.214931369E0
4.185596354E0,1.516145945E0,9.754868507E0,1.219722271E0
4.187600938E0,1.487400174E0,9.759658813E0,1.224513292E0
4.189605521E0,1.501773000E0,9.764450073E0,1.248468041E0
4.191610156E0,1.496982098E0,9.764450073E0,1.253259063E0
4.193614792E0,1.501773000E0,9.778822899E0,1.243677139E0
4.195619427E0,1.496982098E0,9.769241333E0,1.277213812E0
4.197624063E0,1.477818251E0,9.769241333E0,1.277213812E0
4.199628698E0,1.482609153E0,9.769241333E0,1.272422910E0
4.201633333E0,1.496982098E0,9.764450073E0,1.286795735E0
4.203637969E0,1.482609153E0,9.769241333E0,1.286795735E0
4.205642604E0,1.492191076E0,9.759658813E0,1.282004833E0
4.207647240E0,1.482609153E0,9.764450073E0,1.286795735E0
4.209651875E0,1.477818251E0,9.778822899E0,1.315541506E0
4.211656510E0,1.487400174E0,9.750077248E0,1.320332408E0
4.213661146E0,1.458654404E0,9.774031639E0,1.325123429E0
4.215665781E0,1.458654404E0,9.754868507E0,1.325123429E0
4.217670417E0,1.463445425E0,9.759658813E0,1.329914331E0
4.219675052E0,1.449072480E0,9.759658813E0,1.334705353E0
4.221679688E0,1.444281578E0,9.769241333E0,1.344287276E0
4.223684323E0,1.444281578E0,9.745285988E0,1.349078178E0
4.225688958E0,1.429908633E0,9.735704422E0,1.349078178E0
4.227693594E0,1.434699655E0,9.740495682E0,1.344287276E0
4.229698229E0,1.420326710E0,9.730913162E0,1.368242025E0
4.231702865E0,1.429908633E0,9.735704422E0,1.349078178E0
4.233707500E0,1.415535808E0,9.706958771E0,1.349078178E0
4.235712135E0,1.420326710E0,9.702167511E0,1.353869081E0
