"Time (s)","Gyroscope x (rad/s)","Gyroscope y (rad/s)","Gyroscope z (rad/s)"
2.405171900E-2,2.026930153E-1,2.573809922E-1,-2.164282501E-1
2.605906300E-2,1.994972229E-1,2.637725770E-1,-2.089713961E-1
2.806666700E-2,1.994972229E-1,2.648378611E-1,-1.972535104E-1
3.007437500E-2,1.888445914E-1,2.669683695E-1,-1.897966564E-1
3.208208300E-2,1.877793223E-1,2.722947001E-1,-1.791440248E-1
3.408666700E-2,1.856487989E-1,2.808167934E-1,-1.727524400E-1
3.609125000E-2,1.771266907E-1,2.818820775E-1,-1.620998085E-1
3.809583300E-2,1.739308983E-1,2.946652174E-1,-1.546429694E-1
4.010041700E-2,1.739308983E-1,2.999915481E-1,-1.471861154E-1
4.210500000E-2,1.632782668E-1,3.074483871E-1,-1.407945305E-1
4.410958300E-2,1.590172052E-1,3.138399720E-1,-1.333376914E-1
4.611416700E-2,1.515603662E-1,3.244926035E-1,-1.226850748E-1
4.811875000E-2,1.494298428E-1,3.340799809E-1,-1.162934899E-1
5.012333300E-2,1.409077346E-1,3.426020741E-1,-1.045755893E-1
5.212791700E-2,1.366466731E-1,3.564505279E-1,-1.013798043E-1
5.413250000E-2,1.291898340E-1,3.628420830E-1,-9.392295778E-2
5.613708300E-2,1.281245649E-1,3.745599985E-1,-9.285769612E-2
5.814166700E-2,1.217329800E-1,3.820168376E-1,-8.433558792E-2
6.014625000E-2,1.164066643E-1,3.873431683E-1,-8.220505714E-2
6.215083300E-2,1.132108793E-1,4.022568464E-1,-7.687874138E-2
6.415541700E-2,1.089498252E-1,4.011915922E-1,-7.581347972E-2
6.616000000E-2,1.046887711E-1,4.065178931E-1,-7.048715651E-2
6.816458300E-2,1.004277170E-1,4.097136855E-1,-6.942189485E-2
7.016916700E-2,9.936244786E-2,4.161052704E-1,-6.622610986E-2
7.217375000E-2,9.403613210E-2,4.214316010E-1,-6.729137152E-2
7.417833300E-2,9.190560877E-2,4.214316010E-1,-6.835663319E-2
7.618291700E-2,8.870981634E-2,4.246273935E-1,-6.516083330E-2
7.818750000E-2,8.764455467E-2,4.267579019E-1,-6.729137152E-2
8.019208300E-2,8.231823146E-2,4.278231561E-1,-6.516083330E-2
8.219666700E-2,7.805718482E-2,4.278231561E-1,-6.942189485E-2
8.420125000E-2,8.018770814E-2,4.331494868E-1,-7.048715651E-2
8.620578100E-2,7.912244648E-2,4.299536943E-1,-7.368294895E-2
8.821031300E-2,7.273086160E-2,4.278231561E-1,-7.794400305E-2
9.021484400E-2,7.273086160E-2,4.299536943E-1,-8.113979548E-2
9.221937500E-2,7.166559994E-2,4.267579019E-1,-9.072716534E-2
9.422390600E-2,6.527401507E-2,4.203663170E-1,-9.605348110E-2
9.622843800E-2,6.846980751E-2,4.193010628E-1,-1.003145427E-1
9.823296900E-2,5.888243765E-2,4.107789397E-1,-1.077713817E-1
1.002375000E-1,5.994769931E-2,4.054526389E-1,-1.141629666E-1
1.022420310E-1,5.142559111E-2,4.043873847E-1,-1.237503365E-1
1.042465630E-1,5.249086022E-2,3.969305158E-1,-1.280113757E-1
1.062510940E-1,5.036032945E-2,3.905389607E-1,-1.333376914E-1
1.082556250E-1,4.183822125E-2,3.830820918E-1,-1.397292763E-1
1.102601560E-1,3.970769793E-2,3.777557909E-1,-1.450555921E-1
1.122646880E-1,3.225085139E-2,3.713642061E-1,-1.503819078E-1
1.142692190E-1,3.012032248E-2,3.660378754E-1,-1.578387469E-1
1.162737500E-1,2.692453377E-2,3.553852439E-1,-1.599692851E-1
1.182782810E-1,2.159821801E-2,3.468631506E-1,-1.620998085E-1
1.202828130E-1,1.201084629E-2,3.394062817E-1,-1.620998085E-1
1.222873440E-1,6.684528664E-3,3.266231418E-1,-1.610345393E-1
1.242918750E-1,1.358211040E-3,3.181010187E-1,-1.631650776E-1
1.262964060E-1,-7.723160088E-4,3.021220863E-1,-1.631650776E-1
1.283009380E-1,-1.035968773E-2,2.935999632E-1,-1.599692851E-1
1.303054690E-1,-1.249021478E-2,2.786862850E-1,-1.599692851E-1
1.323100000E-1,-1.781653240E-2,2.616420686E-1,-1.525124311E-1
1.343145310E-1,-2.420811355E-2,2.477936149E-1,-1.514471769E-1
1.363191150E-1,-2.740390413E-2,2.296841294E-1,-1.482513845E-1
1.383236980E-1,-3.486074880E-2,2.126399130E-1,-1.439903229E-1
1.403282810E-1,-4.338286072E-2,1.934651583E-1,-1.418597996E-1
1.423328650E-1,-5.083970726E-2,1.742904186E-1,-1.386640072E-1
1.443374480E-1,-5.403549224E-2,1.561809480E-1,-1.290766448E-1
1.463420310E-1,-6.255760044E-2,1.359409392E-1,-1.258808672E-1
1.483466150E-1,-6.894918531E-2,1.188967302E-1,-1.205545440E-1
1.503511980E-1,-7.427550107E-2,9.865672141E-2,-1.141629666E-1
1.523557810E-1,-8.386287093E-2,8.161250502E-2,-1.067061201E-1
1.543603650E-1,-8.918919414E-2,6.137249991E-2,-9.924927354E-2
1.563649480E-1,-9.771130234E-2,4.432828352E-2,-8.859664202E-2
1.583695310E-1,-1.062334105E-1,3.047985025E-2,-8.433558792E-2
1.603741150E-1,-1.158207804E-1,1.023984607E-2,-7.687874138E-2
1.623786980E-1,-1.211470962E-1,-6.804370321E-3,-6.729137152E-2
1.643832810E-1,-1.307344735E-1,-1.852227002E-2,-5.983451754E-2
1.663878650E-1,-1.349955201E-1,-3.343595937E-2,-5.024714768E-2
1.683924480E-1,-1.445828974E-1,-4.515385255E-2,-4.492082819E-2
1.703970310E-1,-1.552355289E-1,-6.006754562E-2,-3.746398538E-2
1.724016150E-1,-1.616271138E-1,-7.072018087E-2,-2.681135200E-2
1.744061980E-1,-1.690839529E-1,-8.350334316E-2,-2.255029790E-2
1.764107810E-1,-1.722797453E-1,-9.309072047E-2,-1.083239913E-2
1.784153650E-1,-1.786713302E-1,-9.948229790E-2,-5.506080575E-3
1.804199480E-1,-1.882587075E-1,-1.090696678E-1,8.855005726E-4
1.824245310E-1,-1.925197542E-1,-1.165265143E-1,1.950764097E-3
1.844291150E-1,-2.021071315E-1,-1.271791607E-1,1.260339841E-2
1.864336980E-1,-2.074334472E-1,-1.367665231E-1,1.473392546E-2
1.884382810E-1,-2.053029239E-1,-1.378317922E-1,2.325603366E-2
1.904428650E-1,-2.159555554E-1,-1.420928538E-1,2.964761667E-2
1.924474480E-1,-2.148902863E-1,-1.452886313E-1,3.816972673E-2
1.944520310E-1,-2.212818712E-1,-1.516802162E-1,3.603919968E-2
1.964566150E-1,-2.276734561E-1,-1.527454853E-1,4.456130788E-2
1.984611980E-1,-2.266081870E-1,-1.538107395E-1,4.349604249E-2
2.004657810E-1,-2.308692336E-1,-1.516802162E-1,4.882236198E-2
2.024703650E-1,-2.340650260E-1,-1.506149471E-1,4.775709659E-2
2.044749480E-1,-2.340650260E-1,-1.463539004E-1,5.201815069E-2
2.064795310E-1,-2.383260876E-1,-1.420928538E-1,4.882236198E-2
2.084841150E-1,-2.383260876E-1,-1.346359998E-1,5.095288903E-2
2.104886980E-1,-2.340650260E-1,-1.314402074E-1,4.775709659E-2
2.124932810E-1,-2.383260876E-1,-1.293096840E-1,5.095288903E-2
2.144978650E-1,-2.340650260E-1,-1.197223067E-1,4.669183493E-2
2.165024480E-1,-2.351302952E-1,-1.112001985E-1,4.136551917E-2
2.185070310E-1,-2.361955643E-1,-1.048086137E-1,4.562657326E-2
2.205116150E-1,-2.404566109E-1,-9.735176712E-2,4.243078083E-2
2.225161980E-1,-2.372608185E-1,-9.309072047E-2,3.710446507E-2
2.245207810E-1,-2.361955643E-1,-8.137281984E-2,3.923498839E-2
2.265253650E-1,-2.372608185E-1,-7.285071164E-2,3.710446507E-2
2.285299480E-1,-2.361955643E-1,-6.539386511E-2,3.816972673E-2
2.305345310E-1,-2.361955643E-1,-5.793701485E-2,2.858235128E-2
2.325391150E-1,-2.361955643E-1,-4.728438333E-2,3.284341097E-2
2.345436980E-1,-2.329997718E-1,-4.089280218E-2,3.071287833E-2
2.365482810E-1,-2.351302952E-1,-3.556648269E-2,2.219077013E-2
2.385528650E-1,-2.308692336E-1,-2.491385117E-2,1.579918899E-2
2.405574480E-1,-2.340650260E-1,-1.745700650E-2,1.579918899E-2
2.425620310E-1,-2.361955643E-1,-1.426121499E-2,1.260339841E-2
2.445666150E-1,-2.319345027E-1,6.524741184E-4,7.277081255E-3
2.465711980E-1,-2.308692336E-1,3.848264692E-3,5.146554206E-3
2.485757810E-1,-2.308692336E-1,1.663142629E-2,-1.797629520E-4
2.505803650E-1,-2.351302952E-1,1.982721686E-2,-2.310290001E-3
2.525849480E-1,-2.340650260E-1,2.621879801E-2,-1.245026477E-3
2.545895310E-1,-2.393913567E-1,2.941458672E-2,-3.375553526E-3
2.565941150E-1,-2.361955643E-1,3.580617532E-2,-5.506080575E-3
2.585986980E-1,-2.383260876E-1,3.900196031E-2,-2.310290001E-3
2.606032810E-1,-2.361955643E-1,4.432828352E-2,-5.506080575E-3
2.626078650E-1,-2.383260876E-1,4.752406850E-2,-7.636607625E-3
2.646124480E-1,-2.383260876E-1,5.178512260E-2,-1.083239913E-2
2.666170310E-1,-2.372608185E-1,5.604618415E-2,-1.083239913E-2
2.686216150E-1,-2.383260876E-1,6.137249991E-2,-1.189766265E-2
2.706261980E-1,-2.383260876E-1,6.669881195E-2,-1.083239913E-2
2.726307810E-1,-2.383260876E-1,7.095986605E-2,-9.767134674E-3
2.746353650E-1,-2.436524034E-1,7.415565848E-2,-1.189766265E-2
2.766399480E-1,-2.425871342E-1,7.841671258E-2,-7.636607625E-3
2.786445310E-1,-2.468481958E-1,8.480829000E-2,-8.701871149E-3
2.806491150E-1,-2.489787191E-1,8.906934410E-2,-8.701871149E-3
2.826536980E-1,-2.500439882E-1,8.800408244E-2,-4.440817051E-3
2.846582810E-1,-2.511092424E-1,9.333039820E-2,-1.245026477E-3
2.866628650E-1,-2.543050349E-1,9.652619064E-2,-2.310290001E-3
2.886674480E-1,-2.521744967E-1,1.061135605E-1,8.855005726E-4
2.906720310E-1,-2.543050349E-1,1.082440913E-1,7.277081255E-3
2.926766150E-1,-2.564355731E-1,1.071788296E-1,6.211817730E-3
2.946811980E-1,-2.575007975E-1,1.114398763E-1,8.342344314E-3
2.966857810E-1,-2.543050349E-1,1.178314611E-1,6.211817730E-3
2.986903650E-1,-2.564355731E-1,1.188967302E-1,1.047287136E-2
3.006949480E-1,-2.606965899E-1,1.220925227E-1,1.260339841E-2
3.026995310E-1,-2.606965899E-1,1.252882928E-1,8.342344314E-3
3.047041150E-1,-2.617618442E-1,1.263535619E-1,7.277081255E-3
3.067086980E-1,-2.585660517E-1,1.284840852E-1,9.407607839E-3
3.087132810E-1,-2.638923824E-1,1.284840852E-1,1.047287136E-2
3.107178650E-1,-2.660229206E-1,1.263535619E-1,1.153813489E-2
3.127224480E-1,-2.638923824E-1,1.284840852E-1,9.407607839E-3
3.147270310E-1,-2.617618442E-1,1.274188310E-1,1.153813489E-2
3.167316150E-1,-2.660229206E-1,1.252882928E-1,1.473392546E-2
3.187361980E-1,-2.628271282E-1,1.210272536E-1,1.579918899E-2
3.207407810E-1,-2.628271282E-1,1.188967302E-1,1.473392546E-2
3.227453650E-1,-2.628271282E-1,1.167661920E-1,1.792971604E-2
3.247499480E-1,-2.617618442E-1,1.199619845E-1,2.112550661E-2
3.267545310E-1,-2.638923824E-1,1.199619845E-1,3.071287833E-2
3.287591150E-1,-2.681534290E-1,1.157009378E-1,3.284341097E-2
3.307636980E-1,-2.670881748E-1,1.125051454E-1,3.603919968E-2
3.327682810E-1,-2.660229206E-1,1.135704070E-1,3.497393429E-2
3.347728650E-1,-2.660229206E-1,1.135704070E-1,3.923498839E-2
3.367774480E-1,-2.649576366E-1,1.093093529E-1,3.923498839E-2
3.387820310E-1,-2.660229206E-1,1.082440913E-1,4.243078083E-2
3.407866150E-1,-2.617618442E-1,1.061135605E-1,4.030025378E-2
3.427911980E-1,-2.649576366E-1,9.972198308E-2,4.988762736E-2
3.447957810E-1,-2.702839673E-1,9.439565986E-2,4.988762736E-2
3.468003650E-1,-2.606965899E-1,9.759145230E-2,4.669183493E-2
3.488049480E-1,-2.681534290E-1,9.013461322E-2,5.414868146E-2
3.508095310E-1,-2.660229206E-1,8.374302834E-2,5.627920479E-2
3.528141150E-1,-2.638923824E-1,7.841671258E-2,5.627920479E-2
3.548186980E-1,-2.606965899E-1,7.841671258E-2,6.373604387E-2
3.568232810E-1,-2.638923824E-1,7.628618181E-2,6.693183631E-2
3.588278650E-1,-2.575007975E-1,7.095986605E-2,6.799709797E-2
3.608324480E-1,-2.649576366E-1,6.776407361E-2,7.651920617E-2
3.628370310E-1,-2.638923824E-1,6.669881195E-2,8.504131436E-2
3.648416150E-1,-2.638923824E-1,6.137249991E-2,9.036763012E-2
3.668461980E-1,-2.628271282E-1,5.924196914E-2,9.462868422E-2
3.688507810E-1,-2.628271282E-1,5.817670748E-2,9.888973832E-2
3.708553650E-1,-2.628271282E-1,5.498091504E-2,1.020855308E-1
3.728599480E-1,-2.596313357E-1,5.391565338E-2,1.084771156E-1
3.748645310E-1,-2.596313357E-1,5.391565338E-2,1.159339547E-1
3.768691150E-1,-2.628271282E-1,5.071986094E-2,1.191297472E-1
3.788736980E-1,-2.617618442E-1,4.539354518E-2,1.244560704E-1
3.808782810E-1,-2.585660517E-1,4.432828352E-2,1.308476627E-1
3.828828650E-1,-2.606965899E-1,4.113249108E-2,1.404350251E-1
3.848874480E-1,-2.649576366E-1,3.367564455E-2,1.372392476E-1
3.868920310E-1,-2.628271282E-1,3.367564455E-2,1.457613558E-1
3.888966150E-1,-2.692187130E-1,2.621879801E-2,1.532181948E-1
3.909011980E-1,-2.649576366E-1,2.302300930E-2,1.564139873E-1
3.929057810E-1,-2.670881748E-1,2.089248039E-2,1.596097797E-1
3.949103650E-1,-2.638923824E-1,1.663142629E-2,1.585445106E-1
3.969149480E-1,-2.628271282E-1,8.109319024E-3,1.649360955E-1
3.989195310E-1,-2.638923824E-1,5.978791974E-3,1.691971421E-1
4.009241150E-1,-2.649576366E-1,4.913528450E-3,1.670666188E-1
4.029286980E-1,-2.606965899E-1,-2.543316456E-3,1.681318879E-1
4.049332810E-1,-2.660229206E-1,-6.804370321E-3,1.713276803E-1
4.069378650E-1,-2.681534290E-1,-1.106542442E-2,1.766539961E-1
4.089424480E-1,-2.702839673E-1,-1.745700650E-2,1.787845194E-1
4.109470310E-1,-2.670881748E-1,-2.384858765E-2,1.766539961E-1
4.129516150E-1,-2.692187130E-1,-2.704437822E-2,1.777192503E-1
4.149561980E-1,-2.692187130E-1,-2.917490527E-2,1.809150428E-1
4.169607810E-1,-2.702839673E-1,-3.237069398E-2,1.862413585E-1
4.189653650E-1,-2.713492215E-1,-4.302332923E-2,1.894371510E-1
4.209699480E-1,-2.702839673E-1,-4.302332923E-2,1.894371510E-1
4.229745310E-1,-2.670881748E-1,-4.621912166E-2,1.958287358E-1
4.249791150E-1,-2.713492215E-1,-5.048017576E-2,1.979592592E-1
4.269836980E-1,-2.702839673E-1,-5.048017576E-2,1.968940049E-1
4.289882810E-1,-2.692187130E-1,-5.793701485E-2,2.022203207E-1
4.309928650E-1,-2.649576366E-1,-6.006754562E-2,2.043508440E-1
4.329974480E-1,-2.670881748E-1,-6.858965755E-2,2.064813673E-1
4.350020310E-1,-2.670881748E-1,-7.072018087E-2,2.064813673E-1
4.370066150E-1,-2.702839673E-1,-7.391597331E-2,2.096771598E-1
4.390111980E-1,-2.734797597E-1,-7.178544998E-2,2.107424289E-1
4.410157810E-1,-2.702839673E-1,-7.391597331E-2,2.096771598E-1
4.430203650E-1,-2.660229206E-1,-8.137281984E-2,2.139382213E-1
4.450249480E-1,-2.670881748E-1,-8.030755073E-2,2.181992680E-1
4.470295310E-1,-2.649576366E-1,-8.563387394E-2,2.267213762E-1
4.490341150E-1,-2.649576366E-1,-9.096018970E-2,2.245908529E-1
4.510386980E-1,-2.660229206E-1,-8.989492804E-2,2.277866453E-1
4.530432810E-1,-2.617618442E-1,-9.522124380E-2,2.405698001E-1
4.550478650E-1,-2.670881748E-1,-9.522124380E-2,2.427003235E-1
4.570524480E-1,-2.670881748E-1,-9.202545136E-2,2.544182241E-1
4.590570310E-1,-2.638923824E-1,-9.415598214E-2,2.586792707E-1
4.610616150E-1,-2.596313357E-1,-9.948229790E-2,2.693319023E-1
4.630661980E-1,-2.596313357E-1,-9.841703624E-2,2.842455804E-1
4.650707810E-1,-2.575007975E-1,-9.841703624E-2,2.906371653E-1
4.670753650E-1,-2.564355731E-1,-1.016128287E-1,2.991592884E-1
4.690799480E-1,-2.553702891E-1,-1.005475596E-1,3.098119199E-1
4.710845310E-1,-2.489787191E-1,-1.037433520E-1,3.119424582E-1
4.730891150E-1,-2.447176725E-1,-1.069391444E-1,3.215298057E-1
4.750936980E-1,-2.404566109E-1,-1.058738753E-1,3.289866745E-1
4.770982810E-1,-2.329997718E-1,-1.058738753E-1,3.289866745E-1
4.791028650E-1,-2.308692336E-1,-1.048086137E-1,3.353782296E-1
4.811074480E-1,-2.287387103E-1,-1.069391444E-1,3.364435136E-1
4.831120310E-1,-2.223471403E-1,-1.048086137E-1,3.332477212E-1
4.851166150E-1,-2.212818712E-1,-9.948229790E-2,3.321824670E-1
4.871211980E-1,-2.170208097E-1,-9.948229790E-2,3.300519288E-1
4.891257810E-1,-2.148902863E-1,-9.841703624E-2,3.289866745E-1
4.911303650E-1,-2.148902863E-1,-8.882965893E-2,3.279213905E-1
4.931349480E-1,-2.202166021E-1,-8.350334316E-2,3.247255981E-1
4.951395310E-1,-2.138250172E-1,-8.563387394E-2,3.215298057E-1
4.971441150E-1,-2.180860788E-1,-8.137281984E-2,3.225950897E-1
4.991486980E-1,-2.170208097E-1,-7.178544998E-2,3.108771741E-1
5.011532810E-1,-2.170208097E-1,-7.604650408E-2,3.151382208E-1
5.031578650E-1,-2.180860788E-1,-7.072018087E-2,3.130077124E-1
5.051624480E-1,-2.180860788E-1,-6.752439588E-2,3.108771741E-1
5.071670310E-1,-2.191513479E-1,-7.498123497E-2,3.151382208E-1
5.091716150E-1,-2.170208097E-1,-7.498123497E-2,3.183340132E-1
5.111761980E-1,-2.116944939E-1,-8.137281984E-2,3.215298057E-1
5.131807810E-1,-2.095639706E-1,-8.563387394E-2,3.193992972E-1
5.151853650E-1,-1.999765933E-1,-9.522124380E-2,3.215298057E-1
5.171899480E-1,-1.935850233E-1,-1.069391444E-1,3.215298057E-1
5.191945310E-1,-1.935850233E-1,-1.218528301E-1,3.225950897E-1
5.211991150E-1,-1.903892308E-1,-1.388970613E-1,3.268561363E-1
5.232036980E-1,-1.786713302E-1,-1.484844238E-1,3.225950897E-1
5.252082810E-1,-1.765408069E-1,-1.623328477E-1,3.204645514E-1
5.272128650E-1,-1.690839529E-1,-1.815076023E-1,3.193992972E-1
5.292174480E-1,-1.626923680E-1,-1.932255030E-1,3.108771741E-1
5.312220310E-1,-1.563007981E-1,-2.081391811E-1,3.066161275E-1
5.332266150E-1,-1.509744823E-1,-2.145307660E-1,3.012897968E-1
5.352311980E-1,-1.456481516E-1,-2.251833975E-1,2.906371653E-1
5.372357810E-1,-1.413871050E-1,-2.379665673E-1,2.831803262E-1
5.392403650E-1,-1.381913126E-1,-2.496844679E-1,2.703971565E-1
5.412449480E-1,-1.264734119E-1,-2.528802156E-1,2.682666481E-1
5.432495310E-1,-1.232776269E-1,-2.635328472E-1,2.576140165E-1
5.452541150E-1,-1.168860421E-1,-2.720549703E-1,2.469613850E-1
5.472586980E-1,-1.190165728E-1,-2.773812711E-1,2.427003235E-1
5.492632810E-1,-1.115597263E-1,-2.859033942E-1,2.331129611E-1
5.512678650E-1,-1.062334105E-1,-2.859033942E-1,2.245908529E-1
5.532724480E-1,-1.019723564E-1,-2.912296951E-1,2.181992680E-1
5.552770310E-1,-1.041028798E-1,-2.912296951E-1,2.118076831E-1
5.572816150E-1,-9.771130234E-2,-2.976212800E-1,2.011550516E-1
5.592861980E-1,-1.009070873E-1,-3.008170724E-1,1.979592592E-1
5.612907810E-1,-1.009070873E-1,-2.986865640E-1,1.905024201E-1
5.632953650E-1,-1.041028798E-1,-2.997518182E-1,1.862413585E-1
5.652999480E-1,-1.009070873E-1,-2.986865640E-1,1.787845194E-1
5.673045310E-1,-1.009070873E-1,-2.976212800E-1,1.745234579E-1
5.693091150E-1,-1.030376181E-1,-2.965560257E-1,1.681318879E-1
5.713136980E-1,-1.009070873E-1,-2.944254875E-1,1.681318879E-1
5.733182810E-1,-1.019723564E-1,-2.954907715E-1,1.649360955E-1
5.753228650E-1,-1.030376181E-1,-2.997518182E-1,1.649360955E-1
5.773274480E-1,-1.083639339E-1,-2.997518182E-1,1.638708264E-1
5.793320310E-1,-1.083639339E-1,-3.061434031E-1,1.628055722E-1
5.813366150E-1,-1.072986722E-1,-3.061434031E-1,1.585445106E-1
5.833411980E-1,-1.083639339E-1,-3.146654963E-1,1.660013646E-1
5.853457810E-1,-1.072986722E-1,-3.178612888E-1,1.660013646E-1
5.873503650E-1,-1.051681489E-1,-3.242528737E-1,1.734582037E-1
5.893549480E-1,-1.051681489E-1,-3.306444585E-1,1.702624112E-1
5.913595310E-1,-1.030376181E-1,-3.423623741E-1,1.745234579E-1
5.933641150E-1,-1.083639339E-1,-3.476886749E-1,1.766539961E-1
5.953686980E-1,-1.083639339E-1,-3.583413064E-1,1.798497885E-1
5.973732810E-1,-1.094291955E-1,-3.657981455E-1,1.851761043E-1
5.993778650E-1,-1.083639339E-1,-3.743202686E-1,1.862413585E-1
6.013824480E-1,-1.115597263E-1,-3.913644850E-1,1.883718967E-1
6.033870310E-1,-1.115597263E-1,-4.020171165E-1,1.894371510E-1
6.053916150E-1,-1.179513037E-1,-4.137350023E-1,1.947634667E-1
6.073961980E-1,-1.211470962E-1,-4.318445027E-1,1.936982125E-1
6.094007810E-1,-1.296692044E-1,-4.435623884E-1,1.979592592E-1
6.114053650E-1,-1.296692044E-1,-4.616718590E-1,1.947634667E-1
6.134099480E-1,-1.381913126E-1,-4.744550288E-1,1.979592592E-1
6.154145310E-1,-1.371260583E-1,-4.883034527E-1,1.968940049E-1
6.174191150E-1,-1.424523741E-1,-5.000213981E-1,1.979592592E-1
6.194236980E-1,-1.456481516E-1,-5.128045678E-1,1.915676743E-1
6.214282810E-1,-1.499092132E-1,-5.202614069E-1,1.958287358E-1
6.234328650E-1,-1.488439441E-1,-5.298487544E-1,2.011550516E-1
6.254374480E-1,-1.531050056E-1,-5.394361615E-1,1.979592592E-1
6.274420310E-1,-1.594965905E-1,-5.479582548E-1,2.000897974E-1
6.294466150E-1,-1.605618447E-1,-5.532845855E-1,1.990245283E-1
6.314511980E-1,-1.594965905E-1,-5.564803481E-1,1.979592592E-1
6.334557810E-1,-1.648229063E-1,-5.650024414E-1,1.915676743E-1
6.354603650E-1,-1.680186987E-1,-5.681982636E-1,1.915676743E-1
6.374649480E-1,-1.722797453E-1,-5.724592805E-1,1.851761043E-1
6.394695310E-1,-1.786713302E-1,-5.809814334E-1,1.755887270E-1
6.414741150E-1,-1.818671227E-1,-5.841771960E-1,1.713276803E-1
6.434786980E-1,-1.839976460E-1,-5.820466876E-1,1.649360955E-1
6.454832810E-1,-1.829323769E-1,-5.788508654E-1,1.564139873E-1
6.474878650E-1,-1.786713302E-1,-5.788508654E-1,1.478918791E-1
6.494924480E-1,-1.776060611E-1,-5.788508654E-1,1.446960866E-1
6.514970310E-1,-1.786713302E-1,-5.735245943E-1,1.361739784E-1
6.535016150E-1,-1.776060611E-1,-5.692635179E-1,1.265866011E-1
6.555061980E-1,-1.733450145E-1,-5.724592805E-1,1.159339547E-1
6.575107810E-1,-1.733450145E-1,-5.681982636E-1,1.052813232E-1
6.595153650E-1,-1.701492220E-1,-5.639371872E-1,9.036763012E-2
6.615199480E-1,-1.701492220E-1,-5.618066788E-1,8.184552193E-2
6.635245310E-1,-1.648229063E-1,-5.554150939E-1,7.225815207E-2
6.655291150E-1,-1.594965905E-1,-5.522193313E-1,5.947499722E-2
6.675336980E-1,-1.573660523E-1,-5.500887632E-1,5.414868146E-2
6.695382810E-1,-1.509744823E-1,-5.468930006E-1,3.816972673E-2
6.715428650E-1,-1.488439441E-1,-5.330445766E-1,3.284341097E-2
6.735474480E-1,-1.488439441E-1,-5.373055935E-1,1.899497956E-2
6.755520310E-1,-1.413871050E-1,-5.266529918E-1,1.473392546E-2
6.775566150E-1,-1.392565817E-1,-5.298487544E-1,-1.245026477E-3
6.795611980E-1,-1.349955201E-1,-5.255877376E-1,-5.506080575E-3
6.815657810E-1,-1.307344735E-1,-5.245224237E-1,-1.935450733E-2
6.835703650E-1,-1.317997277E-1,-5.309140086E-1,-1.722398028E-2
6.855749480E-1,-1.286039352E-1,-5.287835002E-1,-2.894187905E-2
6.875795310E-1,-1.254081428E-1,-5.287835002E-1,-3.320293501E-2
6.895841150E-1,-1.232776269E-1,-5.309140086E-1,-3.639872000E-2
6.915886980E-1,-1.232776269E-1,-5.394361615E-1,-4.172503948E-2
6.935932810E-1,-1.190165728E-1,-5.447624326E-1,-4.598609358E-2
6.955978650E-1,-1.179513037E-1,-5.500887632E-1,-5.131240934E-2
6.976024480E-1,-1.264734119E-1,-5.671330094E-1,-5.344293639E-2
6.996070310E-1,-1.211470962E-1,-5.767203569E-1,-5.450820178E-2
7.016116150E-1,-1.296692044E-1,-5.926992893E-1,-5.663872510E-2
7.036161980E-1,-1.275386810E-1,-5.990908742E-1,-6.516083330E-2
7.056207810E-1,-1.286039352E-1,-6.129392982E-1,-6.622610986E-2
7.076253650E-1,-1.328649968E-1,-6.257224679E-1,-6.835663319E-2
7.096299480E-1,-1.328649968E-1,-6.406361461E-1,-6.409557164E-2
7.116345310E-1,-1.371260583E-1,-6.544846296E-1,-6.622610986E-2
7.136391150E-1,-1.392565817E-1,-6.630067229E-1,-6.409557164E-2
7.156436980E-1,-1.403218359E-1,-6.800509095E-1,-6.303030998E-2
7.176482810E-1,-1.456481516E-1,-6.938993335E-1,-6.196504459E-2
7.196528650E-1,-1.456481516E-1,-7.120088339E-1,-5.663872510E-2
7.216574480E-1,-1.445828974E-1,-7.247920036E-1,-5.770399049E-2
7.236620310E-1,-1.477786899E-1,-7.397056818E-1,-5.237767100E-2
7.256666150E-1,-1.477786899E-1,-7.535541058E-1,-4.492082819E-2
7.276711980E-1,-1.499092132E-1,-7.631414533E-1,-4.279030114E-2
7.296757810E-1,-1.499092132E-1,-7.780551910E-1,-3.426819295E-2
7.316803650E-1,-1.499092132E-1,-7.929688692E-1,-2.574608847E-2
7.336849480E-1,-1.499092132E-1,-8.046867847E-1,-1.722398028E-2
7.356895310E-1,-1.456481516E-1,-8.164046407E-1,-8.701871149E-3
7.376941150E-1,-1.456481516E-1,-8.249267936E-1,-5.506080575E-3
7.396986980E-1,-1.456481516E-1,-8.345141411E-1,5.146554206E-3
7.417032810E-1,-1.488439441E-1,-8.472973108E-1,1.153813489E-2
7.437078650E-1,-1.467134207E-1,-8.568846583E-1,1.047287136E-2
7.457124480E-1,-1.413871050E-1,-8.675373197E-1,1.579918899E-2
7.477170310E-1,-1.381913126E-1,-8.696678281E-1,1.792971604E-2
7.497216150E-1,-1.381913126E-1,-8.803204894E-1,2.858235128E-2
7.517261980E-1,-1.360607892E-1,-8.888425827E-1,2.751708776E-2
7.537307810E-1,-1.339302659E-1,-8.973646760E-1,3.284341097E-2
7.557353650E-1,-1.307344735E-1,-9.005604982E-1,3.284341097E-2
7.577399480E-1,-1.254081428E-1,-9.069520831E-1,4.030025378E-2
7.597445310E-1,-1.275386810E-1,-9.154741764E-1,4.136551917E-2
7.617491150E-1,-1.243428886E-1,-9.208005071E-1,4.562657326E-2
7.637536980E-1,-1.211470962E-1,-9.271920919E-1,4.988762736E-2
7.657582810E-1,-1.190165728E-1,-9.367794394E-1,4.562657326E-2
7.677628650E-1,-1.158207804E-1,-9.431710243E-1,4.456130788E-2
7.697674480E-1,-1.147555187E-1,-9.495626092E-1,4.243078083E-2
7.717720310E-1,-1.136902571E-1,-9.591499567E-1,4.456130788E-2
7.737766150E-1,-1.126249880E-1,-9.708678722E-1,4.669183493E-2
7.757811980E-1,-1.115597263E-1,-9.825857878E-1,4.988762736E-2
7.777857810E-1,-1.115597263E-1,-9.900426269E-1,4.988762736E-2
7.797903650E-1,-1.126249880E-1,-1.000695229E0,5.095288903E-2
7.817949480E-1,-1.168860421E-1,-1.012413144E0,5.521394312E-2
7.837995310E-1,-1.190165728E-1,-1.016674161E0,5.201815069E-2
7.858041150E-1,-1.179513037E-1,-1.030522585E0,5.627920479E-2
7.878086980E-1,-1.190165728E-1,-1.040109992E0,5.521394312E-2
7.898132810E-1,-1.232776269E-1,-1.051827788E0,6.054025516E-2
7.918178650E-1,-1.275386810E-1,-1.067806840E0,5.947499722E-2
7.938224480E-1,-1.275386810E-1,-1.084851027E0,5.840973556E-2
7.958270310E-1,-1.307344735E-1,-1.105090976E0,5.627920479E-2
7.978316150E-1,-1.339302659E-1,-1.124265790E0,5.414868146E-2
7.998361980E-1,-1.339302659E-1,-1.138114214E0,5.095288903E-2
8.018407810E-1,-1.317997277E-1,-1.158354163E0,3.816972673E-2
8.038453650E-1,-1.307344735E-1,-1.176463723E0,3.710446507E-2
8.058499480E-1,-1.317997277E-1,-1.199899435E0,3.284341097E-2
8.078545310E-1,-1.307344735E-1,-1.214813113E0,3.284341097E-2
8.098591150E-1,-1.328649968E-1,-1.228661537E0,3.071287833E-2
8.118636980E-1,-1.328649968E-1,-1.240379453E0,3.177814558E-2
8.138682810E-1,-1.349955201E-1,-1.255293131E0,3.390867263E-2
8.158728650E-1,-1.317997277E-1,-1.271272063E0,3.071287833E-2
8.178774480E-1,-1.339302659E-1,-1.279794216E0,2.964761667E-2
8.198820310E-1,-1.360607892E-1,-1.293642640E0,3.284341097E-2
8.218866150E-1,-1.349955201E-1,-1.303230047E0,3.923498839E-2
8.238911980E-1,-1.360607892E-1,-1.307491064E0,3.816972673E-2
8.258957810E-1,-1.381913126E-1,-1.312817454E0,4.243078083E-2
8.279003650E-1,-1.467134207E-1,-1.330926895E0,4.669183493E-2
8.299049480E-1,-1.509744823E-1,-1.345840573E0,4.456130788E-2
8.319095310E-1,-1.531050056E-1,-1.359688997E0,4.349604249E-2
8.339141150E-1,-1.541702747E-1,-1.385255337E0,4.349604249E-2
8.359186980E-1,-1.552355289E-1,-1.390581608E0,3.710446507E-2
8.379232810E-1,-1.563007981E-1,-1.393777370E0,3.923498839E-2
8.399278650E-1,-1.594965905E-1,-1.401234269E0,4.243078083E-2
8.419324480E-1,-1.573660523E-1,-1.400169015E0,4.669183493E-2
8.439370310E-1,-1.626923680E-1,-1.403364778E0,5.201815069E-2
8.459416150E-1,-1.658881605E-1,-1.404430032E0,6.267078221E-2
8.479461980E-1,-1.744102687E-1,-1.405495286E0,6.586657465E-2
8.499507810E-1,-1.786713302E-1,-1.408691168E0,7.332341373E-2
8.519553650E-1,-1.808018535E-1,-1.408691168E0,7.225815207E-2
8.539605210E-1,-1.893239617E-1,-1.409756422E0,7.758446783E-2
8.559655210E-1,-1.935850233E-1,-1.404430032E0,7.758446783E-2
8.579701040E-1,-1.957155466E-1,-1.392712116E0,7.438868284E-2
8.599746880E-1,-1.967808008E-1,-1.388451099E0,7.864972949E-2
8.619792710E-1,-1.999765933E-1,-1.379928946E0,8.291079104E-2
8.639838540E-1,-2.010418624E-1,-1.370341659E0,7.864972949E-2
8.659884380E-1,-2.021071315E-1,-1.357558489E0,7.758446783E-2
8.679930210E-1,-2.053029239E-1,-1.341579556E0,9.462868422E-2
8.699976040E-1,-2.116944939E-1,-1.320274234E0,1.052813232E-1
8.720021880E-1,-2.116944939E-1,-1.297903657E0,1.212602705E-1
8.740067710E-1,-2.021071315E-1,-1.274467945E0,1.297823936E-1
8.760113540E-1,-1.978460699E-1,-1.267011046E0,1.361739784E-1
8.780159380E-1,-1.914544851E-1,-1.257423639E0,1.425655633E-1
8.800205210E-1,-1.733450145E-1,-1.273402691E0,1.265866011E-1
8.820251040E-1,-1.467134207E-1,-1.306425810E0,1.095423773E-1
8.840296880E-1,-1.349955201E-1,-1.321339488E0,9.143289924E-2
8.860342710E-1,-1.232776269E-1,-1.352232099E0,7.438868284E-2
8.880388540E-1,-1.168860421E-1,-1.375667930E0,4.775709659E-2
8.900434380E-1,-1.126249880E-1,-1.390581608E0,2.538656071E-2
8.920480210E-1,-1.222123653E-1,-1.400169015E0,1.260339841E-2
8.940488020E-1,-1.211470962E-1,-1.427865863E0,-4.440817051E-3
8.960495830E-1,-1.147555187E-1,-1.444910049E0,-2.148503438E-2
8.980507810E-1,-1.179513037E-1,-1.460888982E0,-3.000714257E-2
9.000525520E-1,-1.158207804E-1,-1.483259559E0,-3.533345461E-2
9.020549480E-1,-1.179513037E-1,-1.512021661E0,-4.492082819E-2
9.040580210E-1,-1.158207804E-1,-1.543979526E0,-5.983451754E-2
9.060618230E-1,-1.104944646E-1,-1.565284848E0,-7.687874138E-2
9.080663540E-1,-1.104944646E-1,-1.603634357E0,-8.859664202E-2
9.100716150E-1,-1.136902571E-1,-1.636657476E0,-1.003145427E-1
9.120775520E-1,-1.158207804E-1,-1.665419579E0,-1.120324358E-1
9.140840630E-1,-1.200818345E-1,-1.687790155E0,-1.237503365E-1
9.160910420E-1,-1.243428886E-1,-1.712291241E0,-1.322724372E-1
9.180983850E-1,-1.286039352E-1,-1.732531190E0,-1.439903229E-1
9.201059380E-1,-1.349955201E-1,-1.755967021E0,-1.578387469E-1
9.221135940E-1,-1.392565817E-1,-1.784729123E0,-1.652956009E-1
9.241212500E-1,-1.392565817E-1,-1.816686988E0,-1.738177091E-1
9.261259380E-1,-1.456481516E-1,-1.839057565E0,-1.780787557E-1
9.281305210E-1,-1.445828974E-1,-1.859297633E0,-1.866008639E-1
9.301351040E-1,-1.477786899E-1,-1.877407074E0,-1.919271797E-1
9.321396880E-1,-1.488439441E-1,-1.889124990E0,-1.961882412E-1
9.341442710E-1,-1.456481516E-1,-1.906169176E0,-1.961882412E-1
9.361488540E-1,-1.445828974E-1,-1.917887092E0,-1.919271797E-1
9.381534380E-1,-1.413871050E-1,-1.927474499E0,-1.919271797E-1
9.401580210E-1,-1.456481516E-1,-1.939192295E0,-1.929924488E-1
9.421626040E-1,-1.435176283E-1,-1.953040719E0,-1.951229721E-1
9.441671880E-1,-1.467134207E-1,-1.976476550E0,-1.940577179E-1
9.461717710E-1,-1.499092132E-1,-1.984998703E0,-2.025798261E-1
9.481763540E-1,-1.520397365E-1,-2.004173517E0,-2.089713961E-1
9.501809380E-1,-1.488439441E-1,-2.015891552E0,-2.185587734E-1
9.521855210E-1,-1.531050056E-1,-2.030805111E0,-2.249503583E-1
9.541901040E-1,-1.520397365E-1,-2.045718908E0,-2.430598289E-1
9.561946880E-1,-1.531050056E-1,-2.063828230E0,-2.558430135E-1
9.581992710E-1,-1.509744823E-1,-2.083003044E0,-2.771482766E-1
9.602038540E-1,-1.520397365E-1,-2.103243113E0,-2.963230312E-1
9.622084380E-1,-1.541702747E-1,-2.127744198E0,-3.186935484E-1
9.642130210E-1,-1.541702747E-1,-2.149049282E0,-3.453251421E-1
9.662176040E-1,-1.541702747E-1,-2.173550367E0,-3.751525283E-1
9.682221880E-1,-1.563007981E-1,-2.202312469E0,-3.985883296E-1
9.702267710E-1,-1.541702747E-1,-2.233205318E0,-4.273504317E-1
9.722313540E-1,-1.509744823E-1,-2.260902166E0,-4.539820254E-1
9.742359380E-1,-1.541702747E-1,-2.292860031E0,-4.880704582E-1
9.762405210E-1,-1.584313214E-1,-2.322687387E0,-5.083104968E-1
9.782451040E-1,-1.552355289E-1,-2.358906269E0,-5.466599464E-1
9.802496880E-1,-1.573660523E-1,-2.395125151E0,-5.807483792E-1
9.822542710E-1,-1.584313214E-1,-2.427083254E0,-6.127063036E-1
9.842588540E-1,-1.616271138E-1,-2.464367390E0,-6.414684057E-1
9.862634380E-1,-1.669534296E-1,-2.504847288E0,-6.670347452E-1
9.882680210E-1,-1.701492220E-1,-2.536805391E0,-6.968621016E-1
9.902726040E-1,-1.701492220E-1,-2.571959019E0,-7.277547717E-1
9.922771880E-1,-1.754755378E-1,-2.610308409E0,-7.490600348E-1
9.942817710E-1,-1.808018535E-1,-2.651853800E0,-7.756916285E-1
9.962863540E-1,-1.850629151E-1,-2.688072681E0,-7.991273999E-1
9.982909380E-1,-1.839976460E-1,-2.724291801E0,-8.278895020E-1
1.000295521E0,-1.914544851E-1,-2.767967463E0,-8.438684940E-1
1.002300104E0,-1.978460699E-1,-2.812708616E0,-8.619779348E-1
1.004304688E0,-2.042376548E-1,-2.847862244E0,-8.790221810E-1
1.006309271E0,-2.127597630E-1,-2.893668652E0,-8.950011134E-1
1.008313854E0,-2.180860788E-1,-2.930952787E0,-9.099147916E-1
1.010318438E0,-2.266081870E-1,-2.974628687E0,-9.226979613E-1
1.012323021E0,-2.298039794E-1,-3.021500111E0,-9.312201142E-1
1.014327604E0,-2.372608185E-1,-3.070502281E0,-9.344158769E-1
1.016332188E0,-2.447176725E-1,-3.128026485E0,-9.408074617E-1
1.018336771E0,-2.553702891E-1,-3.171702385E0,-9.408074617E-1
1.020341354E0,-2.617618442E-1,-3.221769810E0,-9.471990466E-1
1.022345938E0,-2.756102681E-1,-3.270771980E0,-9.440032244E-1
1.024350521E0,-2.841323912E-1,-3.317643404E0,-9.514601231E-1
1.026355104E0,-2.958502769E-1,-3.370906591E0,-9.621127248E-1
1.028359688E0,-3.086334467E-1,-3.415647745E0,-9.695695639E-1
1.030364271E0,-3.160902858E-1,-3.465715170E0,-9.780916572E-1
1.032368854E0,-3.267429173E-1,-3.515782595E0,-9.834179878E-1
1.034373438E0,-3.395260870E-1,-3.569045782E0,-9.855485559E-1
1.036378021E0,-3.469829261E-1,-3.615917206E0,-9.898095727E-1
1.038382604E0,-3.640271425E-1,-3.657462597E0,-9.972664118E-1
1.040387188E0,-3.789408505E-1,-3.706464767E0,-1.003658056E0
1.042391771E0,-3.927892745E-1,-3.750140429E0,-1.008984327E0
1.044396354E0,-4.034419060E-1,-3.793816328E0,-1.018571734E0
1.046400938E0,-4.204861224E-1,-3.832165718E0,-1.030289650E0
1.048405521E0,-4.311387539E-1,-3.871580601E0,-1.046268582E0
1.050410104E0,-4.449871778E-1,-3.903538465E0,-1.064378023E0
1.052414688E0,-4.630966485E-1,-3.941887856E0,-1.076095939E0
1.054419271E0,-4.769450724E-1,-3.968519449E0,-1.093140125E0
1.056423854E0,-4.875977337E-1,-3.999412060E0,-1.103792787E0
1.058428438E0,-5.035766959E-1,-4.028174400E0,-1.124032736E0
1.060433021E0,-5.110335350E-1,-4.051609993E0,-1.136815906E0
1.062437604E0,-5.259472132E-1,-4.070784569E0,-1.148533821E0
1.064442188E0,-5.355346203E-1,-4.093155384E0,-1.163447499E0
1.066446771E0,-5.504482985E-1,-4.110199451E0,-1.180491805E0
1.068451354E0,-5.600356460E-1,-4.127243519E0,-1.197535992E0
1.070455938E0,-5.749493837E-1,-4.137896538E0,-1.215645432E0
1.072460521E0,-5.866672397E-1,-4.151744843E0,-1.234820247E0
1.074465104E0,-6.005156636E-1,-4.161332130E0,-1.252929688E0
1.076469688E0,-6.090378165E-1,-4.163462639E0,-1.265712857E0
1.078474271E0,-6.186251640E-1,-4.166658401E0,-1.277430773E0
1.080478854E0,-6.367346644E-1,-4.177310944E0,-1.285952806E0
1.082483438E0,-6.484525204E-1,-4.177310944E0,-1.296605468E0
1.084488021E0,-6.612356901E-1,-4.180506706E0,-1.302997112E0
1.086492604E0,-6.740188599E-1,-4.178376198E0,-1.310453892E0
1.088497188E0,-6.814756989E-1,-4.187963963E0,-1.315780163E0
1.090501771E0,-6.931936145E-1,-4.185833454E0,-1.325367570E0
1.092506354E0,-7.017157078E-1,-4.187963963E0,-1.334954977E0
1.094510938E0,-7.113031149E-1,-4.191159725E0,-1.343477130E0
1.096515521E0,-7.176946998E-1,-4.189029217E0,-1.351999164E0
1.098520104E0,-7.294125557E-1,-4.186898708E0,-1.362651825E0
1.100524688E0,-7.336736321E-1,-4.191159725E0,-1.373304486E0
1.102529271E0,-7.400652170E-1,-4.190094471E0,-1.382891774E0
1.104533854E0,-7.475220561E-1,-4.181571960E0,-1.393544436E0
1.106538438E0,-7.528483868E-1,-4.176245689E0,-1.401001334E0
1.108543021E0,-7.539136410E-1,-4.170919418E0,-1.412719250E0
1.110547604E0,-7.571094036E-1,-4.164527893E0,-1.425502419E0
1.112552188E0,-7.571094036E-1,-4.156005859E0,-1.429763436E0
1.114556771E0,-7.624357343E-1,-4.147483826E0,-1.439350843E0
1.116561354E0,-7.666968107E-1,-4.136831284E0,-1.442546606E0
1.118565938E0,-7.666968107E-1,-4.115525723E0,-1.447872877E0
1.120570521E0,-7.688273191E-1,-4.092090130E0,-1.454264522E0
1.122575104E0,-7.709578276E-1,-4.065458298E0,-1.459590793E0
1.124579688E0,-7.762841582E-1,-4.037761688E0,-1.463851810E0
1.126584271E0,-7.741536498E-1,-4.007934093E0,-1.469178200E0
1.128588854E0,-7.730883956E-1,-3.983433247E0,-1.469178200E0
1.130593438E0,-7.656315565E-1,-3.949344635E0,-1.473439217E0
1.132598021E0,-7.624357343E-1,-3.916321516E0,-1.480896115E0
1.134602604E0,-7.571094036E-1,-3.882233143E0,-1.483026624E0
1.136607188E0,-7.517831326E-1,-3.839622498E0,-1.491548657E0
1.138611771E0,-7.464568019E-1,-3.802338362E0,-1.493679285E0
1.140616354E0,-7.379347086E-1,-3.758662462E0,-1.496875048E0
1.142620938E0,-7.347388864E-1,-3.714986801E0,-1.504331827E0
1.144625521E0,-7.272820473E-1,-3.657462597E0,-1.513919234E0
1.146630104E0,-7.219557166E-1,-3.609525681E0,-1.517114997E0
1.148634688E0,-7.176946998E-1,-3.555197239E0,-1.529898167E0
1.150639271E0,-7.070420384E-1,-3.496607780E0,-1.540550828E0
1.152643854E0,-6.995851994E-1,-3.442279339E0,-1.555464506E0
1.154648438E0,-6.921283603E-1,-3.386885643E0,-1.566117167E0
1.156653021E0,-6.846715212E-1,-3.330426693E0,-1.583161354E0
1.158657604E0,-6.729536057E-1,-3.272902489E0,-1.594879270E0
1.160662188E0,-6.633662581E-1,-3.208986521E0,-1.604466677E0
1.162666771E0,-6.580399275E-1,-3.151462317E0,-1.614053965E0
1.164671354E0,-6.495178342E-1,-3.079024553E0,-1.624706626E0
1.166675938E0,-6.463220119E-1,-3.020434856E0,-1.628967643E0
1.168680521E0,-6.431262493E-1,-2.960780144E0,-1.628967643E0
1.170685104E0,-6.431262493E-1,-2.904321194E0,-1.634294033E0
1.172689688E0,-6.420609355E-1,-2.840405464E0,-1.644946694E0
1.174694271E0,-6.399304271E-1,-2.783946514E0,-1.649207711E0
1.176698854E0,-6.420609355E-1,-2.722161055E0,-1.661990881E0
1.178703438E0,-6.420609355E-1,-2.662506342E0,-1.668382406E0
1.180708021E0,-6.399304271E-1,-2.599655867E0,-1.677969813E0
1.182712604E0,-6.388651729E-1,-2.536805391E0,-1.682230830E0
1.184717188E0,-6.388651729E-1,-2.481411695E0,-1.690752983E0
1.186721771E0,-6.346040964E-1,-2.424952745E0,-1.702470899E0
1.188726354E0,-6.346040964E-1,-2.367428303E0,-1.710992932E0
1.190730938E0,-6.303430796E-1,-2.308838844E0,-1.721645594E0
1.192735521E0,-6.260820031E-1,-2.248118877E0,-1.729102492E0
1.194740104E0,-6.228862405E-1,-2.195920944E0,-1.739755154E0
1.196744688E0,-6.164946556E-1,-2.134135723E0,-1.745081425E0
1.198749271E0,-6.132988334E-1,-2.083003044E0,-1.755734086E0
1.200753854E0,-6.079725027E-1,-2.032935619E0,-1.757864594E0
1.202758438E0,-6.037114859E-1,-1.979672313E0,-1.766386747E0
1.204763021E0,-5.983851552E-1,-1.929605007E0,-1.770647764E0
1.206767604E0,-5.898630619E-1,-1.881668091E0,-1.772778273E0
1.208772188E0,-5.845367312E-1,-1.836927056E0,-1.773843527E0
1.210776771E0,-5.749493837E-1,-1.791120768E0,-1.777039289E0
1.212781354E0,-5.717535615E-1,-1.749575496E0,-1.780235171E0
1.214785938E0,-5.664272308E-1,-1.702703834E0,-1.782365680E0
1.216790521E0,-5.600356460E-1,-1.670745969E0,-1.777039289E0
1.218795104E0,-5.536440611E-1,-1.634526968E0,-1.777039289E0
1.220799688E0,-5.440567136E-1,-1.598307967E0,-1.779169798E0
1.222804271E0,-5.419262052E-1,-1.567415357E0,-1.779169798E0
1.224808854E0,-5.355346203E-1,-1.539718509E0,-1.778104544E0
1.226813438E0,-5.291430354E-1,-1.507760644E0,-1.775974035E0
1.228818021E0,-5.248819590E-1,-1.485390067E0,-1.778104544E0
1.230822604E0,-5.216861963E-1,-1.464084864E0,-1.773843527E0
1.232827188E0,-5.163598657E-1,-1.434257388E0,-1.772778273E0
1.234831771E0,-5.152946115E-1,-1.419343710E0,-1.770647764E0
1.236836354E0,-5.120987892E-1,-1.393777370E0,-1.772778273E0
1.238840938E0,-5.110335350E-1,-1.385255337E0,-1.766386747E0
1.240845521E0,-5.099682808E-1,-1.371406913E0,-1.770647764E0
1.242850104E0,-5.099682808E-1,-1.355427980E0,-1.768517256E0
1.244854688E0,-5.078377724E-1,-1.341579556E0,-1.766386747E0
1.246859271E0,-5.067725182E-1,-1.334122658E0,-1.771713018E0
1.248863854E0,-5.078377724E-1,-1.328796387E0,-1.769582510E0
1.250868438E0,-5.131641030E-1,-1.316013217E0,-1.769582510E0
1.252873021E0,-5.174251199E-1,-1.308556318E0,-1.766386747E0
1.254877604E0,-5.142293572E-1,-1.304295301E0,-1.768517256E0
1.256882188E0,-5.184903741E-1,-1.298969030E0,-1.766386747E0
1.258886771E0,-5.227514505E-1,-1.291512132E0,-1.764256120E0
1.260891354E0,-5.302082896E-1,-1.292577386E0,-1.762125611E0
1.262895938E0,-5.323387980E-1,-1.290446877E0,-1.764256120E0
1.264900521E0,-5.376651287E-1,-1.281924725E0,-1.758929849E0
1.266905104E0,-5.429914594E-1,-1.284055233E0,-1.755734086E0
1.268909688E0,-5.483177900E-1,-1.280859470E0,-1.759995103E0
1.270914271E0,-5.547093749E-1,-1.279794216E0,-1.758929849E0
1.272918854E0,-5.642967224E-1,-1.282989979E0,-1.755734086E0
1.274923438E0,-5.696230531E-1,-1.280859470E0,-1.757864594E0
1.276928021E0,-5.770798922E-1,-1.282989979E0,-1.753603578E0
1.278932604E0,-5.856019855E-1,-1.291512132E0,-1.753603578E0
1.280937188E0,-5.866672397E-1,-1.292577386E0,-1.749342442E0
1.282941771E0,-5.994504094E-1,-1.297903657E0,-1.749342442E0
1.284946354E0,-6.047767401E-1,-1.306425810E0,-1.749342442E0
1.286950938E0,-6.186251640E-1,-1.310686827E0,-1.753603578E0
1.288955521E0,-6.260820031E-1,-1.316013217E0,-1.744016171E0
1.290960104E0,-6.324735880E-1,-1.321339488E0,-1.747211933E0
1.292964688E0,-6.452567577E-1,-1.325600505E0,-1.739755154E0
1.294969271E0,-6.495178342E-1,-1.333057404E0,-1.742950916E0
1.296973854E0,-6.537788510E-1,-1.336253166E0,-1.741885662E0
1.298978438E0,-6.644315124E-1,-1.340514302E0,-1.734428763E0
1.300983021E0,-6.750841141E-1,-1.347971082E0,-1.735494018E0
1.302987604E0,-6.782799363E-1,-1.345840573E0,-1.735494018E0
1.304995000E0,-6.868020296E-1,-1.354362726E0,-1.735494018E0
1.306996875E0,-6.921283603E-1,-1.360754251E0,-1.730167747E0
1.308998854E0,-7.049115300E-1,-1.366080523E0,-1.729102492E0
1.311001042E0,-7.038462162E-1,-1.367145896E0,-1.723776102E0
1.313003490E0,-7.102378011E-1,-1.370341659E0,-1.721645594E0
1.315006302E0,-7.113031149E-1,-1.372472167E0,-1.722710848E0
1.317009531E0,-7.144988775E-1,-1.378863692E0,-1.715254068E0
1.319013177E0,-7.187599540E-1,-1.374602675E0,-1.707797170E0
1.321017292E0,-7.219557166E-1,-1.376733184E0,-1.703536153E0
1.323021875E0,-7.230209708E-1,-1.372472167E0,-1.698209882E0
1.325026875E0,-7.272820473E-1,-1.375667930E0,-1.690752983E0
1.327032292E0,-7.283473015E-1,-1.374602675E0,-1.682230830E0
1.329038073E0,-7.347388864E-1,-1.374602675E0,-1.674774051E0
1.331044167E0,-7.326083779E-1,-1.373537421E0,-1.669447660E0
1.333050469E0,-7.347388864E-1,-1.372472167E0,-1.659860373E0
1.335056927E0,-7.347388864E-1,-1.365015268E0,-1.653468728E0
1.337063438E0,-7.315431237E-1,-1.363950014E0,-1.647077203E0
1.339069948E0,-7.358041406E-1,-1.358623743E0,-1.638555050E0
1.341074792E0,-7.400652170E-1,-1.355427980E0,-1.626837134E0
1.343079375E0,-7.368693948E-1,-1.347971082E0,-1.621510863E0
1.345083958E0,-7.411304712E-1,-1.342644811E0,-1.611923456E0
1.347088542E0,-7.389999628E-1,-1.333057404E0,-1.606597185E0
1.349093125E0,-7.368693948E-1,-1.327731133E0,-1.599140286E0
1.351097708E0,-7.411304712E-1,-1.319208980E0,-1.595944524E0
1.353102292E0,-7.421957254E-1,-1.314947963E0,-1.584226608E0
1.355106875E0,-7.421957254E-1,-1.307491064E0,-1.576769829E0
1.357111458E0,-7.411304712E-1,-1.302164793E0,-1.566117167E0
1.359116042E0,-7.421957254E-1,-1.294707894E0,-1.558660269E0
1.361120625E0,-7.389999628E-1,-1.286185861E0,-1.553333998E0
1.363125208E0,-7.421957254E-1,-1.269141555E0,-1.548007727E0
1.365129792E0,-7.485873103E-1,-1.256358385E0,-1.539485574E0
1.367134375E0,-7.507178187E-1,-1.242509961E0,-1.532028675E0
1.369138958E0,-7.496525645E-1,-1.227596283E0,-1.527767658E0
1.371143542E0,-7.496525645E-1,-1.210552096E0,-1.521376133E0
1.373148125E0,-7.560441494E-1,-1.196703672E0,-1.514984488E0
1.375152708E0,-7.581746578E-1,-1.180724740E0,-1.509658217E0
1.377157292E0,-7.613704801E-1,-1.167941570E0,-1.502201319E0
1.379161875E0,-7.645662427E-1,-1.156223655E0,-1.495809793E0
1.381166458E0,-7.666968107E-1,-1.145570993E0,-1.495809793E0
1.383171042E0,-7.645662427E-1,-1.134918332E0,-1.491548657E0
1.385175625E0,-7.677620649E-1,-1.124265790E0,-1.489418149E0
1.387180208E0,-7.656315565E-1,-1.113613129E0,-1.485157132E0
1.389184792E0,-7.645662427E-1,-1.108286858E0,-1.480896115E0
1.391189375E0,-7.635009885E-1,-1.105090976E0,-1.483026624E0
1.393193958E0,-7.624357343E-1,-1.094438434E0,-1.480896115E0
1.395198542E0,-7.571094036E-1,-1.082720518E0,-1.475569725E0
1.397203125E0,-7.549788952E-1,-1.077394128E0,-1.472373962E0
1.399207708E0,-7.507178187E-1,-1.071002603E0,-1.473439217E0
1.401212292E0,-7.453915477E-1,-1.074198365E0,-1.464917064E0
1.403216875E0,-7.336736321E-1,-1.060349941E0,-1.464917064E0
1.405221458E0,-7.240862250E-1,-1.056088924E0,-1.455329776E0
1.407226042E0,-7.155641317E-1,-1.050762534E0,-1.447872877E0
1.409230625E0,-7.070420384E-1,-1.047566772E0,-1.442546606E0
1.411235208E0,-6.953241229E-1,-1.040109992E0,-1.432959199E0
1.413239792E0,-6.814756989E-1,-1.040109992E0,-1.427632928E0
1.415244375E0,-6.718883514E-1,-1.036914110E0,-1.412719250E0
1.417248958E0,-6.591051817E-1,-1.034783602E0,-1.406327605E0
1.419253542E0,-6.505830884E-1,-1.028392076E0,-1.393544436E0
1.421258125E0,-6.367346644E-1,-1.033718348E0,-1.382891774E0
1.423262708E0,-6.292778254E-1,-1.028392076E0,-1.363717079E0
1.425267292E0,-6.196904182E-1,-1.026261568E0,-1.354129672E0
1.427271875E0,-6.079725027E-1,-1.027326822E0,-1.339215994E0
1.429276458E0,-6.005156636E-1,-1.028392076E0,-1.322171807E0
1.431281042E0,-5.909283161E-1,-1.024130940E0,-1.310453892E0
1.433285625E0,-5.845367312E-1,-1.027326822E0,-1.295540214E0
1.435290208E0,-5.770798922E-1,-1.028392076E0,-1.281691790E0
1.437294792E0,-5.706883073E-1,-1.031587839E0,-1.265712857E0
1.439299375E0,-5.642967224E-1,-1.033718348E0,-1.251864433E0
1.441303958E0,-5.621662140E-1,-1.033718348E0,-1.243342280E0
1.443308542E0,-5.547093749E-1,-1.032653093E0,-1.223102331E0
1.445313125E0,-5.515135527E-1,-1.037979364E0,-1.211384416E0
1.447317708E0,-5.483177900E-1,-1.040109992E0,-1.197535992E0
1.449322292E0,-5.536440611E-1,-1.043305755E0,-1.180491805E0
1.451326875E0,-5.493830442E-1,-1.047566772E0,-1.169839144E0
1.453331458E0,-5.483177900E-1,-1.051827788E0,-1.159186482E0
1.455336042E0,-5.461872220E-1,-1.059284687E0,-1.143207550E0
1.457340625E0,-5.451219678E-1,-1.061415195E0,-1.132554889E0
1.459345208E0,-5.483177900E-1,-1.063545704E0,-1.117641211E0
1.461349792E0,-5.472525358E-1,-1.069937348E0,-1.104858041E0
1.463354375E0,-5.440567136E-1,-1.071002603E0,-1.094205379E0
1.465358958E0,-5.451219678E-1,-1.076328874E0,-1.078226447E0
1.467363542E0,-5.419262052E-1,-1.080590010E0,-1.064378023E0
1.469368125E0,-5.440567136E-1,-1.085916281E0,-1.051594853E0
1.471372708E0,-5.429914594E-1,-1.096568942E0,-1.032420158E0
1.473377292E0,-5.419262052E-1,-1.100829959E0,-1.017506480E0
1.475381875E0,-5.355346203E-1,-1.108286858E0,-1.003658056E0
1.477386458E0,-5.334041119E-1,-1.114678383E0,-9.887443185E-1
1.479391042E0,-5.291430354E-1,-1.121069908E0,-9.727653861E-1
1.481395625E0,-5.355346203E-1,-1.133853078E0,-9.546558857E-1
1.483400208E0,-5.248819590E-1,-1.138114214E0,-9.440032244E-1
1.485404792E0,-5.270125270E-1,-1.151962638E0,-9.333506227E-1
1.487409375E0,-5.259472132E-1,-1.162615299E0,-9.184369445E-1
1.489413958E0,-5.206209421E-1,-1.175398350E0,-9.045885205E-1
1.491418542E0,-5.216861963E-1,-1.188181520E0,-8.939358592E-1
1.493423125E0,-5.142293572E-1,-1.195638418E0,-8.832832575E-1
1.495427708E0,-5.131641030E-1,-1.206291080E0,-8.705000877E-1
1.497432292E0,-5.120987892E-1,-1.214813113E0,-8.630432487E-1
1.499436875E0,-5.099682808E-1,-1.225465775E0,-8.534558415E-1
1.501441458E0,-5.035766959E-1,-1.233987927E0,-8.428032398E-1
1.503446042E0,-5.035766959E-1,-1.241444707E0,-8.310853243E-1
1.505450625E0,-4.961198270E-1,-1.248901606E0,-8.257589936E-1
1.507455208E0,-4.929240346E-1,-1.260619521E0,-8.225632310E-1
1.509459792E0,-4.854671955E-1,-1.272337437E0,-8.097800612E-1
1.511464375E0,-4.801408648E-1,-1.272337437E0,-8.044537306E-1
1.513465260E0,-4.769450724E-1,-1.278728962E0,-7.959316373E-1
1.515466146E0,-4.684229791E-1,-1.286185861E0,-7.938010693E-1
1.517467448E0,-4.630966485E-1,-1.290446877E0,-7.842137218E-1
1.519469271E0,-4.524440169E-1,-1.288316369E0,-7.767568827E-1
1.521471719E0,-4.460524321E-1,-1.290446877E0,-7.724958062E-1
1.523474844E0,-4.353998005E-1,-1.291512132E0,-7.639737129E-1
1.525478698E0,-4.258124232E-1,-1.290446877E0,-7.543863654E-1
1.527483281E0,-4.215513766E-1,-1.284055233E0,-7.469295263E-1
1.529488542E0,-4.098334908E-1,-1.277663708E0,-7.384073734E-1
1.531494427E0,-3.991808593E-1,-1.269141555E0,-7.320157886E-1
1.533500885E0,-3.906587362E-1,-1.257423639E0,-7.213631868E-1
1.535507813E0,-3.768103123E-1,-1.249966860E0,-7.096452713E-1
1.537515104E0,-3.640271425E-1,-1.241444707E0,-7.000579238E-1
1.539522604E0,-3.544397652E-1,-1.225465775E0,-6.904705167E-1
1.541530208E0,-3.448524177E-1,-1.210552096E0,-6.787526608E-1
1.543537813E0,-3.299387097E-1,-1.195638418E0,-6.702305079E-1
1.545542552E0,-3.203513324E-1,-1.173267841E0,-6.542515755E-1
1.547547135E0,-3.118292391E-1,-1.155158401E0,-6.414684057E-1
1.549551719E0,-2.979808152E-1,-1.129592061E0,-6.329463124E-1
1.551556302E0,-2.894586921E-1,-1.106156230E0,-6.159020662E-1
1.553560885E0,-2.756102681E-1,-1.081655264E0,-6.052494645E-1
1.555565469E0,-2.681534290E-1,-1.052893043E0,-5.850094557E-1
1.557570052E0,-2.532397807E-1,-1.023065686E0,-5.764873624E-1
1.559574635E0,-2.468481958E-1,-9.996299744E-1,-5.583778620E-1
1.561579219E0,-2.340650260E-1,-9.719331264E-1,-5.445294380E-1
1.563583802E0,-2.255429178E-1,-9.421057701E-1,-5.274851918E-1
1.565588385E0,-2.180860788E-1,-9.101478457E-1,-5.125715137E-1
1.567592969E0,-2.116944939E-1,-8.813857436E-1,-4.955272973E-1
1.569597552E0,-2.042376548E-1,-8.483625650E-1,-4.752872884E-1
1.571602135E0,-1.946502775E-1,-8.185352087E-1,-4.603736103E-1
1.573606719E0,-1.850629151E-1,-7.801856995E-1,-4.390683472E-1
1.575611302E0,-1.733450145E-1,-7.450320125E-1,-4.230893850E-1
1.577615885E0,-1.690839529E-1,-7.056172490E-1,-4.049799144E-1
1.579620469E0,-1.584313214E-1,-6.779204011E-1,-3.911314905E-1
1.581625052E0,-1.573660523E-1,-6.374403834E-1,-3.719567358E-1
1.583629635E0,-1.456481516E-1,-5.990908742E-1,-3.559777737E-1
1.585634219E0,-1.381913126E-1,-5.671330094E-1,-3.336072564E-1
1.587638802E0,-1.296692044E-1,-5.351750851E-1,-3.176282942E-1
1.589643385E0,-1.232776269E-1,-4.957602918E-1,-2.984535694E-1
1.591647969E0,-1.136902571E-1,-4.606066048E-1,-2.782135606E-1
1.593652552E0,-1.094291955E-1,-4.339750111E-1,-2.547777593E-1
1.595657135E0,-1.019723564E-1,-4.020171165E-1,-2.377335131E-1
1.597661719E0,-9.451550990E-2,-3.732550144E-1,-2.142977268E-1
1.599666302E0,-8.066708595E-2,-3.370360434E-1,-1.961882412E-1
1.601670885E0,-7.640603185E-2,-3.136002421E-1,-1.727524400E-1
1.603675469E0,-6.575339288E-2,-2.827076018E-1,-1.567734927E-1
1.605680052E0,-5.936181545E-2,-2.528802156E-1,-1.365334839E-1
1.607684635E0,-4.977443814E-2,-2.230528742E-1,-1.205545440E-1
1.609689219E0,-4.125232995E-2,-1.964212805E-1,-1.035103276E-1
1.611693802E0,-3.486074880E-2,-1.655286402E-1,-8.859664202E-2
1.613698385E0,-2.101232298E-2,-1.367665231E-1,-7.474821806E-2
1.615702969E0,-1.888179593E-2,-1.186570451E-1,-5.344293639E-2
1.617707552E0,-1.462074183E-2,-9.096018970E-2,-4.279030114E-2
1.619712135E0,2.929475158E-4,-6.752439588E-2,-2.894187905E-2
1.621716719E0,1.358211040E-3,-5.048017576E-2,-1.828924380E-2
1.623721302E0,8.815055713E-3,-2.384858765E-2,-5.506080575E-3
1.625725885E0,1.094558276E-2,-4.673843272E-3,8.855005726E-4
1.627730469E0,2.053295448E-2,1.663142629E-2,9.407607839E-3
1.629735052E0,3.225085139E-2,3.261038288E-2,1.579918899E-2
1.631739635E0,3.864242882E-2,5.604618415E-2,2.325603366E-2
1.633744219E0,4.503401369E-2,7.309039682E-2,2.964761667E-2
1.635748802E0,5.249086022E-2,8.267776668E-2,4.030025378E-2
1.637753385E0,5.888243765E-2,1.018525064E-1,4.456130788E-2
1.639757969E0,7.486139238E-2,1.210272536E-1,4.349604249E-2
1.641762552E0,8.338350058E-2,1.370061934E-1,4.988762736E-2
1.643767135E0,8.764455467E-2,1.529851556E-1,4.988762736E-2
1.645771719E0,1.004277170E-1,1.668335795E-1,5.521394312E-2
1.647776302E0,1.132108793E-1,1.860083193E-1,5.521394312E-2
1.649780885E0,1.238635182E-1,2.019872665E-1,6.054025516E-2
1.651785469E0,1.313203573E-1,2.137051672E-1,6.693183631E-2
1.653790052E0,1.441035271E-1,2.286188602E-1,6.480130553E-2
1.655794635E0,1.579519510E-1,2.424672842E-1,6.480130553E-2
1.657799219E0,1.707351059E-1,2.573809922E-1,6.267078221E-2
1.659803802E0,1.781919599E-1,2.669683695E-1,6.799709797E-2
1.661808385E0,1.931056380E-1,2.861431241E-1,6.799709797E-2
1.663812969E0,2.069540620E-1,2.999915481E-1,6.373604387E-2
1.665817552E0,2.208024859E-1,3.106441796E-1,6.373604387E-2
1.667822135E0,2.325203866E-1,3.202315569E-1,6.373604387E-2
1.669826719E0,2.431730479E-1,3.372757733E-1,6.054025516E-2
1.671831302E0,2.548909485E-1,3.479284048E-1,5.840973556E-2
1.673835885E0,2.698046565E-1,3.607115746E-1,6.480130553E-2
1.675840469E0,2.836530805E-1,3.756252527E-1,6.160552427E-2
1.677845052E0,2.964362204E-1,3.830820918E-1,6.160552427E-2
1.679849635E0,3.070888817E-1,3.948000073E-1,5.734447017E-2
1.681854219E0,3.177415133E-1,4.139747322E-1,5.840973556E-2
1.683858802E0,3.326551914E-1,4.182358086E-1,5.947499722E-2
1.685863385E0,3.401120305E-1,4.299536943E-1,5.627920479E-2
1.687867969E0,3.539604545E-1,4.438021183E-1,5.521394312E-2
1.689872552E0,3.678088784E-1,4.544547498E-1,5.521394312E-2
1.691877135E0,3.773962557E-1,4.693684578E-1,5.308341607E-2
1.693881719E0,3.880488873E-1,4.736295044E-1,4.775709659E-2
1.695886302E0,3.965710104E-1,4.896084666E-1,4.349604249E-2
1.697890885E0,4.093541801E-1,4.991958141E-1,4.136551917E-2
1.699895469E0,4.200068116E-1,5.098484159E-1,3.497393429E-2
1.701900052E0,4.274636507E-1,5.194358230E-1,2.964761667E-2
1.703904635E0,4.317246974E-1,5.247620940E-1,2.538656071E-2
1.705909219E0,4.391815364E-1,5.322189927E-1,1.899497956E-2
1.707913802E0,4.466383755E-1,5.418063402E-1,1.260339841E-2
1.709918385E0,4.540952444E-1,5.492631793E-1,6.211817730E-3
1.711922969E0,4.572910368E-1,5.567200184E-1,-3.375553526E-3
1.713927552E0,4.551604986E-1,5.588505268E-1,-7.636607625E-3
1.715932135E0,4.594215453E-1,5.652421117E-1,-1.509345323E-2
1.717936719E0,4.583562911E-1,5.673726797E-1,-2.361556143E-2
1.719941302E0,4.604868293E-1,5.726989508E-1,-3.107240610E-2
1.721945885E0,4.594215453E-1,5.748295188E-1,-4.172503948E-2
1.723950469E0,4.594215453E-1,5.758947730E-1,-4.705135524E-2
1.725955052E0,4.604868293E-1,5.769600272E-1,-5.770399049E-2
1.727959635E0,4.615520835E-1,5.769600272E-1,-6.196504459E-2
1.729964219E0,4.572910368E-1,5.748295188E-1,-7.261768728E-2
1.731968802E0,4.594215453E-1,5.684379339E-1,-7.794400305E-2
1.733973385E0,4.615520835E-1,5.652421117E-1,-8.966190368E-2
1.735977969E0,4.615520835E-1,5.588505268E-1,-9.818401188E-2
1.737982552E0,4.572910368E-1,5.545895100E-1,-1.067061201E-1
1.739987135E0,4.562257528E-1,5.428715944E-1,-1.120324358E-1
1.741991719E0,4.540952444E-1,5.311536789E-1,-1.237503365E-1
1.743996302E0,4.519647062E-1,5.087831616E-1,-1.258808672E-1
1.746000885E0,4.466383755E-1,4.991958141E-1,-1.312071681E-1
1.748005469E0,4.508994520E-1,4.810863435E-1,-1.344029605E-1
1.750010052E0,4.466383755E-1,4.608463347E-1,-1.365334839E-1
1.752014635E0,4.498341680E-1,4.438021183E-1,-1.407945305E-1
1.754019219E0,4.445078671E-1,4.203663170E-1,-1.375987530E-1
1.756023802E0,4.434426129E-1,3.990610540E-1,-1.461208612E-1
1.758028385E0,4.413120747E-1,3.692336679E-1,-1.471861154E-1
1.760032969E0,4.391815364E-1,3.394062817E-1,-1.493166536E-1
1.762037552E0,4.413120747E-1,3.181010187E-1,-1.471861154E-1
1.764042135E0,4.381162822E-1,2.850778699E-1,-1.546429694E-1
1.766046719E0,4.338552356E-1,2.541852295E-1,-1.567734927E-1
1.768051302E0,4.317246974E-1,2.286188602E-1,-1.578387469E-1
1.770055885E0,4.338552356E-1,1.945304275E-1,-1.610345393E-1
1.772060469E0,4.349204898E-1,1.668335795E-1,-1.663608700E-1
1.774065052E0,4.285289049E-1,1.370061934E-1,-1.663608700E-1
1.776069635E0,4.317246974E-1,1.050482988E-1,-1.738177091E-1
1.778074219E0,4.263983965E-1,8.054723591E-2,-1.663608700E-1
1.780078802E0,4.274636507E-1,4.432828352E-2,-1.727524400E-1
1.782083385E0,4.263983965E-1,1.982721686E-2,-1.759482324E-1
1.784087969E0,4.242678583E-1,-1.213068794E-2,-1.780787557E-1
1.786092552E0,4.242678583E-1,-3.663174808E-2,-1.802092940E-1
1.788097135E0,4.168110192E-1,-6.752439588E-2,-1.844703406E-1
1.790101719E0,4.146804810E-1,-9.628650546E-2,-1.823398173E-1
1.792106302E0,4.168110192E-1,-1.207875684E-1,-1.897966564E-1
1.794110885E0,4.125499427E-1,-1.506149471E-1,-1.951229721E-1
1.796115469E0,4.104194343E-1,-1.740507483E-1,-1.961882412E-1
1.798120052E0,4.082888961E-1,-1.932255030E-1,-1.983187646E-1
1.800124635E0,4.093541801E-1,-2.209223509E-1,-2.047103494E-1
1.802129219E0,4.082888961E-1,-2.411623597E-1,-2.100366652E-1
1.804133802E0,4.104194343E-1,-2.592718005E-1,-2.132324576E-1
1.806138385E0,4.040278494E-1,-2.763160169E-1,-2.089713961E-1
1.808142969E0,4.008320570E-1,-2.848381400E-1,-2.217545658E-1
1.810147552E0,3.987015188E-1,-2.997518182E-1,-2.217545658E-1
1.812152135E0,3.965710104E-1,-3.136002421E-1,-2.238850892E-1
1.814156719E0,3.933752179E-1,-3.263834119E-1,-2.292114049E-1
1.816161302E0,3.944404721E-1,-3.455581367E-1,-2.345377356E-1
1.818165885E0,3.923099637E-1,-3.498192132E-1,-2.356029898E-1
1.820170469E0,3.944404721E-1,-3.615370989E-1,-2.366682589E-1
1.822175052E0,3.912446797E-1,-3.668634295E-1,-2.409293056E-1
1.824179635E0,3.923099637E-1,-3.689939380E-1,-2.419945747E-1
1.826184219E0,3.923099637E-1,-3.721897304E-1,-2.483861595E-1
1.828188802E0,3.901794255E-1,-3.711244762E-1,-2.494514138E-1
1.830193385E0,3.901794255E-1,-3.753855228E-1,-2.483861595E-1
1.832197969E0,3.891141713E-1,-3.689939380E-1,-2.515819669E-1
1.834202552E0,3.901794255E-1,-3.626023531E-1,-2.590388060E-1
1.836207135E0,3.880488873E-1,-3.551455140E-1,-2.611693442E-1
1.838211719E0,3.837878406E-1,-3.444928825E-1,-2.622345984E-1
1.840216302E0,3.869836330E-1,-3.349055052E-1,-2.696914375E-1
1.842220885E0,3.901794255E-1,-3.210570812E-1,-2.718219757E-1
1.844225469E0,3.901794255E-1,-3.072086573E-1,-2.750177681E-1
1.846230052E0,3.901794255E-1,-2.869686484E-1,-2.782135606E-1
1.848234635E0,3.901794255E-1,-2.741855085E-1,-2.792788148E-1
1.850239219E0,3.891141713E-1,-2.475539297E-1,-2.888661921E-1
1.852243802E0,3.901794255E-1,-2.219876051E-1,-2.909967005E-1
1.854248385E0,3.923099637E-1,-2.006823421E-1,-3.005840778E-1
1.856252969E0,3.923099637E-1,-1.697897017E-1,-3.069756627E-1
1.858257552E0,3.912446797E-1,-1.463539004E-1,-3.133672476E-1
1.860262135E0,3.901794255E-1,-1.101349369E-1,-3.176282942E-1
1.862266719E0,3.891141713E-1,-8.456861228E-2,-3.229546249E-1
1.864271302E0,3.944404721E-1,-4.515385255E-2,-3.325420022E-1
1.866275885E0,3.923099637E-1,-1.213068794E-2,-3.378683031E-1
1.868280469E0,3.944404721E-1,2.195774391E-2,-3.485209346E-1
1.870285052E0,3.965710104E-1,5.604618415E-2,-3.559777737E-1
1.872289635E0,3.987015188E-1,9.546092898E-2,-3.634346426E-1
1.874294219E0,3.965710104E-1,1.338104010E-1,-3.698261976E-1
1.876298802E0,3.976362646E-1,1.753556877E-1,-3.698261976E-1
1.878303385E0,4.018973112E-1,2.158356905E-1,-3.740872741E-1
1.880307969E0,4.008320570E-1,2.477936149E-1,-3.804788589E-1
1.882312552E0,4.040278494E-1,2.850778699E-1,-3.868704140E-1
1.884317135E0,4.061583877E-1,3.276883960E-1,-3.890009522E-1
1.886321719E0,4.104194343E-1,3.617768288E-1,-3.932619989E-1
1.888326302E0,4.125499427E-1,3.979957998E-1,-3.921967447E-1
1.890330885E0,4.178762734E-1,4.310189486E-1,-4.039146304E-1
1.892335469E0,4.232026041E-1,4.608463347E-1,-4.017841220E-1
1.894340052E0,4.221373200E-1,4.874779284E-1,-4.060451686E-1
1.896344635E0,4.295941889E-1,5.194358230E-1,-4.092409611E-1
1.898349219E0,4.317246974E-1,5.386105180E-1,-4.113714993E-1
1.900353802E0,4.359857440E-1,5.588505268E-1,-4.188283384E-1
1.902358385E0,4.391815364E-1,5.737642646E-1,-4.124367535E-1
1.904362969E0,4.466383755E-1,5.908084512E-1,-4.188283384E-1
1.906367552E0,4.498341680E-1,6.121137142E-1,-4.220241308E-1
1.908372135E0,4.551604986E-1,6.174400449E-1,-4.230893850E-1
1.910376719E0,4.594215453E-1,6.270273924E-1,-4.241546392E-1
1.912381302E0,4.615520835E-1,6.259621382E-1,-4.262851775E-1
1.914385885E0,4.679436684E-1,6.312884688E-1,-4.305462241E-1
1.916390469E0,4.764657617E-1,6.270273924E-1,-4.273504317E-1
1.918395052E0,4.732699692E-1,6.270273924E-1,-4.284157157E-1
1.920399635E0,4.807268083E-1,6.238316298E-1,-4.284157157E-1
1.922404219E0,4.828573465E-1,6.174400449E-1,-4.262851775E-1
1.924408802E0,4.881836772E-1,6.078526974E-1,-4.273504317E-1
1.926413385E0,4.903141856E-1,5.950695276E-1,-4.241546392E-1
1.928417969E0,4.945752621E-1,5.801558495E-1,-4.252199233E-1
1.930422552E0,4.999015331E-1,5.652421117E-1,-4.241546392E-1
1.932427135E0,4.999015331E-1,5.535242558E-1,-4.230893850E-1
1.934431719E0,4.988362789E-1,5.290231705E-1,-4.166978002E-1
1.936436302E0,5.052278638E-1,5.109136701E-1,-4.156325459E-1
1.938440885E0,5.030973554E-1,4.928042591E-1,-4.166978002E-1
1.940445469E0,5.020320415E-1,4.704337120E-1,-4.145672917E-1
1.942450052E0,5.094888806E-1,4.427368641E-1,-4.113714993E-1
1.944454635E0,5.041626096E-1,4.150400162E-1,-4.049799144E-1
1.946459219E0,5.062931180E-1,3.852126300E-1,-4.017841220E-1
1.948463802E0,5.073583722E-1,3.607115746E-1,-4.007188678E-1
1.950468385E0,5.094888806E-1,3.319494426E-1,-3.985883296E-1
1.952472969E0,5.041626096E-1,3.042525947E-1,-3.932619989E-1
1.954477552E0,5.041626096E-1,2.722947001E-1,-3.921967447E-1
1.956482135E0,4.999015331E-1,2.445978224E-1,-3.921967447E-1
1.958486719E0,4.988362789E-1,2.115746439E-1,-3.879356980E-1
1.960491302E0,4.999015331E-1,1.817472577E-1,-3.847399056E-1
1.962495885E0,4.871183932E-1,1.519198865E-1,-3.804788589E-1
1.964500469E0,4.881836772E-1,1.210272536E-1,-3.730219901E-1
1.966505052E0,4.775310457E-1,9.013461322E-2,-3.698261976E-1
1.968509635E0,4.679436684E-1,6.030723080E-2,-3.591735661E-1
1.970514219E0,4.594215453E-1,2.941458672E-2,-3.581083119E-1
1.972518802E0,4.519647062E-1,-4.127894063E-4,-3.474556804E-1
1.974523385E0,4.402468204E-1,-2.810964175E-2,-3.421293497E-1
1.976527969E0,4.274636507E-1,-5.687175319E-2,-3.304114640E-1
1.978532552E0,4.178762734E-1,-8.669913560E-2,-3.282809258E-1
1.980537135E0,4.050931036E-1,-1.122654602E-1,-3.165630400E-1
1.982541719E0,3.923099637E-1,-1.388970613E-1,-3.048451245E-1
1.984546302E0,3.773962557E-1,-1.633981168E-1,-2.920619845E-1
1.986550885E0,3.667436242E-1,-1.932255030E-1,-2.856703997E-1
1.988555469E0,3.465036154E-1,-2.113349736E-1,-2.696914375E-1
1.990560052E0,3.305246532E-1,-2.369012982E-1,-2.547777593E-1
1.992564635E0,3.145457208E-1,-2.571412921E-1,-2.462556213E-1
1.994569219E0,3.006972969E-1,-2.720549703E-1,-2.270808816E-1
1.996573802E0,2.783267498E-1,-2.986865640E-1,-2.068408728E-1
1.998578385E0,2.580867410E-1,-3.167960346E-1,-1.887314022E-1
2.000582969E0,2.389119714E-1,-3.349055052E-1,-1.716871858E-1
2.002587552E0,2.133456469E-1,-3.530150056E-1,-1.546429694E-1
2.004592135E0,1.952361763E-1,-3.743202686E-1,-1.269461215E-1
2.006596719E0,1.718003750E-1,-3.892339468E-1,-1.099019125E-1
2.008601302E0,1.504950970E-1,-4.062781632E-1,-9.179243445E-2
2.010605885E0,1.217329800E-1,-4.211918712E-1,-6.622610986E-2
2.012610469E0,1.025582403E-1,-4.382360876E-1,-4.492082819E-2
2.014615052E0,8.018770814E-2,-4.510192275E-1,-2.148503438E-2
2.016619635E0,5.781717598E-2,-4.638023973E-1,-1.797629520E-4
2.018624219E0,3.438137472E-2,-4.808466136E-1,2.645182423E-2
2.020628802E0,1.094558276E-2,-4.925645292E-1,4.882236198E-2
2.022633385E0,-1.249021478E-2,-5.053476691E-1,6.799709797E-2
2.024637969E0,-3.379548341E-2,-5.181308985E-1,9.782447666E-2
2.026642552E0,-5.403549224E-2,-5.223919153E-1,1.159339547E-1
2.028647135E0,-7.534076273E-2,-5.330445766E-1,1.361739784E-1
2.030651719E0,-9.771130234E-2,-5.405014157E-1,1.574792415E-1
2.032656302E0,-1.126249880E-1,-5.458277464E-1,1.755887270E-1
2.034660885E0,-1.317997277E-1,-5.564803481E-1,1.926329434E-1
2.036665469E0,-1.488439441E-1,-5.575456023E-1,2.118076831E-1
2.038670052E0,-1.594965905E-1,-5.586108565E-1,2.288518995E-1
2.040674635E0,-1.797365844E-1,-5.681982636E-1,2.458961159E-1
2.042679219E0,-1.893239617E-1,-5.735245943E-1,2.640056014E-1
2.044683802E0,-1.989113390E-1,-5.745898485E-1,2.714624405E-1
2.046688385E0,-2.116944939E-1,-5.809814334E-1,2.917024493E-1
2.048692969E0,-2.212818712E-1,-5.852424502E-1,3.023550808E-1
2.050697552E0,-2.298039794E-1,-5.863077641E-1,3.130077124E-1
2.052702135E0,-2.329997718E-1,-5.895035267E-1,3.236603439E-1
2.054706719E0,-2.404566109E-1,-5.937646031E-1,3.300519288E-1
2.056711302E0,-2.425871342E-1,-5.948298573E-1,3.385740221E-1
2.058715885E0,-2.457829267E-1,-6.012214422E-1,3.460308909E-1
2.060720469E0,-2.479134500E-1,-6.033519506E-1,3.492266536E-1
2.062725052E0,-2.479134500E-1,-6.076130271E-1,3.545529842E-1
2.064729635E0,-2.479134500E-1,-6.044172049E-1,3.577487767E-1
2.066734219E0,-2.500439882E-1,-6.033519506E-1,3.641403615E-1
2.068738802E0,-2.489787191E-1,-6.022866964E-1,3.598793149E-1
2.070743385E0,-2.468481958E-1,-6.012214422E-1,3.641403615E-1
2.072747969E0,-2.457829267E-1,-5.980256200E-1,3.662708998E-1
2.074752552E0,-2.393913567E-1,-5.905687809E-1,3.620098233E-1
2.076757135E0,-2.351302952E-1,-5.831119418E-1,3.609445691E-1
2.078761719E0,-2.361955643E-1,-5.777856112E-1,3.609445691E-1
2.080766302E0,-2.287387103E-1,-5.650024414E-1,3.577487767E-1
2.082770885E0,-2.287387103E-1,-5.607414246E-1,3.588140309E-1
2.084775469E0,-2.244776636E-1,-5.447624326E-1,3.534877300E-1
2.086780052E0,-2.159555554E-1,-5.341098309E-1,3.534877300E-1
2.088784635E0,-2.116944939E-1,-5.202614069E-1,3.513571918E-1
2.090789271E0,-2.074334472E-1,-5.000213981E-1,3.470961452E-1
2.092793906E0,-2.031723857E-1,-4.819118679E-1,3.407045603E-1
2.094798542E0,-1.978460699E-1,-4.669981897E-1,3.311171830E-1
2.096803177E0,-1.903892308E-1,-4.467581809E-1,3.321824670E-1
2.098807813E0,-1.818671227E-1,-4.275834262E-1,3.289866745E-1
2.100812448E0,-1.818671227E-1,-4.030823708E-1,3.183340132E-1
2.102817083E0,-1.712144911E-1,-3.807118535E-1,3.130077124E-1
2.104821719E0,-1.701492220E-1,-3.594065607E-1,3.130077124E-1
2.106826354E0,-1.605618447E-1,-3.338402510E-1,3.066161275E-1
2.108830990E0,-1.584313214E-1,-3.104044497E-1,3.012897968E-1
2.110835625E0,-1.509744823E-1,-2.848381400E-1,2.948982418E-1
2.112840260E0,-1.456481516E-1,-2.635328472E-1,2.917024493E-1
2.114844896E0,-1.403218359E-1,-2.411623597E-1,2.842455804E-1
2.116849531E0,-1.339302659E-1,-2.102697194E-1,2.789192796E-1
2.118854167E0,-1.296692044E-1,-1.825728565E-1,2.746582329E-1
2.120858802E0,-1.232776269E-1,-1.633981168E-1,2.693319023E-1
2.122863438E0,-1.200818345E-1,-1.388970613E-1,2.693319023E-1
2.124868073E0,-1.104944646E-1,-1.165265143E-1,2.640056014E-1
2.126872708E0,-1.030376181E-1,-8.882965893E-2,2.640056014E-1
2.128877344E0,-9.877656400E-2,-7.072018087E-2,2.608098090E-1
2.130881979E0,-9.025445580E-2,-4.834964499E-2,2.576140165E-1
2.132886615E0,-8.492814004E-2,-2.384858765E-2,2.586792707E-1
2.134891250E0,-7.853655517E-2,1.717737643E-3,2.565487325E-1
2.136895885E0,-7.107971609E-2,2.302300930E-2,2.586792707E-1
2.138900521E0,-6.468813121E-2,4.432828352E-2,2.597445250E-1
2.140905156E0,-5.829654634E-2,6.776407361E-2,2.586792707E-1
2.142909792E0,-4.977443814E-2,9.013461322E-2,2.586792707E-1
2.144914427E0,-4.018706828E-2,1.082440913E-1,2.703971565E-1
2.146919010E0,-3.273022175E-2,1.274188310E-1,2.672013640E-1
2.148923594E0,-2.633864060E-2,1.433977783E-1,2.735929489E-1
2.150928177E0,-2.207758650E-2,1.615072638E-1,2.767887414E-1
2.152932760E0,-1.249021478E-2,1.785514802E-1,2.799845338E-1
2.154937344E0,-5.033370107E-3,1.902693808E-1,2.853108644E-1
2.156941927E0,-1.837579533E-3,2.083788514E-1,2.938329577E-1
2.158946510E0,7.749792188E-3,2.243578136E-1,2.970287502E-1
2.160951094E0,1.201084629E-2,2.318146527E-1,3.055508733E-1
2.162955677E0,2.053295448E-2,2.456630766E-1,3.087466657E-1
2.164960260E0,2.159821801E-2,2.605767846E-1,3.108771741E-1
2.166964844E0,2.372874506E-2,2.627073228E-1,3.225950897E-1
2.168969427E0,3.225085139E-2,2.744252086E-1,3.257908821E-1
2.170974010E0,3.225085139E-2,2.797515392E-1,3.311171830E-1
2.172978594E0,3.651190549E-2,2.840125859E-1,3.343129754E-1
2.174983177E0,3.970769793E-2,2.914694250E-1,3.353782296E-1
2.176987760E0,4.396875203E-2,2.967957556E-1,3.396393061E-1
2.178992344E0,4.396875203E-2,2.925347090E-1,3.439003527E-1
2.180996927E0,4.183822125E-2,2.946652174E-1,3.481613994E-1
2.183001510E0,4.929506779E-2,2.957305014E-1,3.524224460E-1
2.185006094E0,5.036032945E-2,2.989262938E-1,3.577487767E-1
2.187010677E0,5.036032945E-2,2.957305014E-1,3.588140309E-1
2.189015260E0,5.568664521E-2,2.999915481E-1,3.609445691E-1
2.191019844E0,5.568664521E-2,2.978610098E-1,3.598793149E-1
2.193024427E0,5.462138355E-2,2.935999632E-1,3.694666624E-1
2.195029010E0,5.781717598E-2,2.946652174E-1,3.673361540E-1
2.197033594E0,5.994769931E-2,2.925347090E-1,3.662708998E-1
2.199038177E0,6.314349174E-2,2.946652174E-1,3.673361540E-1
2.201042760E0,6.633928418E-2,2.861431241E-1,3.694666624E-1
2.203047344E0,6.953507662E-2,2.850778699E-1,3.715972006E-1
2.205051927E0,6.740454584E-2,2.829473317E-1,3.694666624E-1
2.207056510E0,7.379612327E-2,2.786862850E-1,3.652056158E-1
2.209061094E0,7.912244648E-2,2.786862850E-1,3.705319464E-1
2.211065677E0,7.805718482E-2,2.712294161E-1,3.705319464E-1
2.213070260E0,8.444876224E-2,2.712294161E-1,3.662708998E-1
2.215074844E0,8.764455467E-2,2.637725770E-1,3.694666624E-1
2.217079427E0,9.190560877E-2,2.627073228E-1,3.652056158E-1
2.219084010E0,9.829718620E-2,2.573809922E-1,3.652056158E-1
2.221088594E0,9.616666287E-2,2.552504838E-1,3.630751073E-1
2.223093177E0,9.936244786E-2,2.563157380E-1,3.630751073E-1
2.225097760E0,1.089498252E-1,2.563157380E-1,3.641403615E-1
2.227102344E0,1.110803485E-1,2.552504838E-1,3.556182384E-1
2.229106927E0,1.153414026E-1,2.531199455E-1,3.556182384E-1
2.231111510E0,1.174719334E-1,2.520546913E-1,3.556182384E-1
2.233116094E0,1.238635182E-1,2.541852295E-1,3.513571918E-1
2.235120677E0,1.259940416E-1,2.520546913E-1,3.492266536E-1
2.237125260E0,1.270593107E-1,2.563157380E-1,3.524224460E-1
2.239129844E0,1.334508806E-1,2.605767846E-1,3.460308909E-1
2.241134427E0,1.345161498E-1,2.648378611E-1,3.449656069E-1
2.243139010E0,1.398424655E-1,2.627073228E-1,3.396393061E-1
2.245143594E0,1.419729888E-1,2.701641619E-1,3.321824670E-1
2.247148177E0,1.409077346E-1,2.722947001E-1,3.311171830E-1
2.249152760E0,1.430382580E-1,2.744252086E-1,3.236603439E-1
2.251157344E0,1.419729888E-1,2.808167934E-1,3.215298057E-1
2.253161927E0,1.462340504E-1,2.829473317E-1,3.193992972E-1
2.255166510E0,1.430382580E-1,2.808167934E-1,3.098119199E-1
2.257171094E0,1.430382580E-1,2.893389165E-1,3.055508733E-1
2.259175677E0,1.462340504E-1,2.914694250E-1,3.002245426E-1
2.261180260E0,1.430382580E-1,2.914694250E-1,2.938329577E-1
2.263184844E0,1.409077346E-1,2.925347090E-1,2.874413729E-1
2.265189427E0,1.451687813E-1,2.989262938E-1,2.789192796E-1
2.267194010E0,1.419729888E-1,2.967957556E-1,2.735929489E-1
2.269198594E0,1.366466731E-1,2.989262938E-1,2.682666481E-1
2.271203177E0,1.387771964E-1,2.957305014E-1,2.618750632E-1
2.273207760E0,1.387771964E-1,2.967957556E-1,2.501571476E-1
2.275212344E0,1.345161498E-1,2.893389165E-1,2.501571476E-1
2.277216927E0,1.334508806E-1,2.904041708E-1,2.395045459E-1
2.279221510E0,1.345161498E-1,2.861431241E-1,2.309824377E-1
2.281226094E0,1.345161498E-1,2.808167934E-1,2.267213762E-1
2.283230677E0,1.302550882E-1,2.722947001E-1,2.277866453E-1
2.285235260E0,1.313203573E-1,2.701641619E-1,2.192645371E-1
2.287239844E0,1.302550882E-1,2.616420686E-1,2.118076831E-1
2.289244427E0,1.302550882E-1,2.584462762E-1,2.064813673E-1
2.291249010E0,1.259940416E-1,2.467283309E-1,2.064813673E-1
2.293253594E0,1.281245649E-1,2.382062376E-1,2.000897974E-1
2.295258177E0,1.249287724E-1,2.339451760E-1,1.947634667E-1
2.297262760E0,1.217329800E-1,2.232925445E-1,1.958287358E-1
2.299267344E0,1.227982491E-1,2.126399130E-1,1.873066276E-1
2.301271927E0,1.206677258E-1,2.019872665E-1,1.873066276E-1
2.303276510E0,1.227982491E-1,1.923999041E-1,1.830455810E-1
2.305281094E0,1.196024567E-1,1.860083193E-1,1.798497885E-1
2.307285677E0,1.164066643E-1,1.764209419E-1,1.809150428E-1
2.309290260E0,1.142761409E-1,1.710946262E-1,1.787845194E-1
2.311294844E0,1.153414026E-1,1.561809480E-1,1.798497885E-1
2.313299427E0,1.121456176E-1,1.497893631E-1,1.734582037E-1
2.315304010E0,1.110803485E-1,1.348756701E-1,1.745234579E-1
2.317308594E0,1.057540327E-1,1.316798776E-1,1.734582037E-1
2.319313177E0,1.014929786E-1,1.178314611E-1,1.723929346E-1
2.321317760E0,1.014929786E-1,1.103746146E-1,1.723929346E-1
2.323322344E0,9.936244786E-2,1.029177681E-1,1.777192503E-1
2.325326927E0,9.723192453E-2,9.652619064E-2,1.766539961E-1
2.327331510E0,9.510140121E-2,8.587355167E-2,1.798497885E-1
2.329336094E0,8.977507800E-2,7.841671258E-2,1.809150428E-1
2.331340677E0,9.297087044E-2,7.202512771E-2,1.809150428E-1
2.333345260E0,8.551402390E-2,6.882933527E-2,1.873066276E-1
2.335349844E0,8.444876224E-2,6.243776157E-2,1.862413585E-1
2.337354427E0,8.444876224E-2,5.498091504E-2,1.883718967E-1
2.339359010E0,7.805718482E-2,4.645880684E-2,1.926329434E-1
2.341363594E0,7.166559994E-2,4.113249108E-2,1.947634667E-1
2.343368177E0,7.273086160E-2,3.367564455E-2,1.990245283E-1
2.345372760E0,7.166559994E-2,2.834932506E-2,1.979592592E-1
2.347377344E0,7.060033828E-2,2.728406340E-2,1.979592592E-1
2.349381927E0,6.101296842E-2,1.982721686E-2,2.054161131E-1
2.351386510E0,5.994769931E-2,1.130510960E-2,2.075466365E-1
2.353391094E0,6.207823008E-2,5.978791974E-3,2.107424289E-1
2.355395677E0,6.207823008E-2,1.717737643E-3,2.118076831E-1
2.357400260E0,5.568664521E-2,-1.213068794E-2,2.118076831E-1
2.359404844E0,5.462138355E-2,-1.426121499E-2,2.192645371E-1
2.361409427E0,5.142559111E-2,-2.171806060E-2,2.181992680E-1
2.363414010E0,4.929506779E-2,-2.917490527E-2,2.171340138E-1
2.365418594E0,5.036032945E-2,-3.556648269E-2,2.213950604E-1
2.367423177E0,4.716453701E-2,-4.302332923E-2,2.245908529E-1
2.369427760E0,4.609927535E-2,-5.580649152E-2,2.245908529E-1
2.371432344E0,4.822980613E-2,-6.113280728E-2,2.245908529E-1
2.373433594E0,4.396875203E-2,-7.072018087E-2,2.277866453E-1
2.375434844E0,4.716453701E-2,-7.285071164E-2,2.277866453E-1
2.377436510E0,4.609927535E-2,-8.456861228E-2,2.245908529E-1
2.379438698E0,4.503401369E-2,-8.882965893E-2,2.267213762E-1
2.381441458E0,4.503401369E-2,-9.948229790E-2,2.277866453E-1
2.383444844E0,4.609927535E-2,-1.037433520E-1,2.267213762E-1
2.385448906E0,4.822980613E-2,-1.101349369E-1,2.213950604E-1
2.387453646E0,4.503401369E-2,-1.090696678E-1,2.192645371E-1
2.389459010E0,5.036032945E-2,-1.186570451E-1,2.118076831E-1
2.391464948E0,5.036032945E-2,-1.250486225E-1,2.139382213E-1
2.393471354E0,4.822980613E-2,-1.261138767E-1,2.086118907E-1
2.395478177E0,5.249086022E-2,-1.325054765E-1,2.107424289E-1
2.397485313E0,5.888243765E-2,-1.367665231E-1,1.990245283E-1
2.399492604E0,5.675191432E-2,-1.346359998E-1,1.990245283E-1
2.401499948E0,5.781717598E-2,-1.420928538E-1,1.883718967E-1
2.403506771E0,6.314349174E-2,-1.431581080E-1,1.841108352E-1
2.405511354E0,6.633928418E-2,-1.516802162E-1,1.798497885E-1
2.407515938E0,6.846980751E-2,-1.527454853E-1,1.787845194E-1
2.409520521E0,7.060033828E-2,-1.538107395E-1,1.670666188E-1
2.411525104E0,7.486139238E-2,-1.548760086E-1,1.660013646E-1
2.413529688E0,7.805718482E-2,-1.591370702E-1,1.532181948E-1
2.415534271E0,8.551402390E-2,-1.580718011E-1,1.489571482E-1
2.417538854E0,8.444876224E-2,-1.602023244E-1,1.393697709E-1
2.419543438E0,8.764455467E-2,-1.633981168E-1,1.372392476E-1
2.421548021E0,9.084033966E-2,-1.687244326E-1,1.308476627E-1
2.423552604E0,8.977507800E-2,-1.612675935E-1,1.233908013E-1
2.425557188E0,9.403613210E-2,-1.591370702E-1,1.148686931E-1
2.427561771E0,1.036235094E-1,-1.570065320E-1,1.042160541E-1
2.429566354E0,1.036235094E-1,-1.538107395E-1,1.010202691E-1
2.431570938E0,1.057540327E-1,-1.538107395E-1,9.356342256E-2
2.433575521E0,1.046887711E-1,-1.506149471E-1,8.184552193E-2
2.435580104E0,1.100150868E-1,-1.420928538E-1,7.864972949E-2
2.437584688E0,1.089498252E-1,-1.420928538E-1,7.012762129E-2
2.439589271E0,1.121456176E-1,-1.367665231E-1,6.054025516E-2
2.441593854E0,1.121456176E-1,-1.303749382E-1,4.775709659E-2
2.443598438E0,1.164066643E-1,-1.197223067E-1,4.456130788E-2
2.445603021E0,1.121456176E-1,-1.133307219E-1,3.816972673E-2
2.447607604E0,1.132108793E-1,-1.080044061E-1,3.177814558E-2
2.449612188E0,1.100150868E-1,-9.948229790E-2,2.325603366E-2
2.451616771E0,1.110803485E-1,-8.989492804E-2,2.006024309E-2
2.453621354E0,1.121456176E-1,-7.817702740E-2,9.407607839E-3
2.455625938E0,1.153414026E-1,-6.858965755E-2,-1.797629520E-4
2.457630521E0,1.057540327E-1,-6.645912677E-2,-2.310290001E-3
2.459635104E0,1.078845561E-1,-5.367596075E-2,-1.189766265E-2
2.461639688E0,1.057540327E-1,-4.408859089E-2,-1.615871675E-2
2.463644271E0,1.036235094E-1,-3.769701347E-2,-2.361556143E-2
2.465648854E0,1.025582403E-1,-2.704437822E-2,-2.894187905E-2
2.467653438E0,1.014929786E-1,-1.745700650E-2,-3.639872000E-2
2.469658021E0,9.829718620E-2,-1.319595147E-2,-3.959450871E-2
2.471662604E0,9.403613210E-2,-3.608579980E-3,-4.385556281E-2
2.473667188E0,9.510140121E-2,6.524741184E-4,-4.918188229E-2
2.475671771E0,9.190560877E-2,8.109319024E-3,-5.344293639E-2
2.477676354E0,8.551402390E-2,1.343563665E-2,-5.770399049E-2
2.479680938E0,8.231823146E-2,1.450090017E-2,-5.983451754E-2
2.481685521E0,8.338350058E-2,2.408827096E-2,-6.409557164E-2
2.483690104E0,7.486139238E-2,2.515353262E-2,-6.622610986E-2
2.485694688E0,7.486139238E-2,2.728406340E-2,-7.155242562E-2
2.487699271E0,7.060033828E-2,3.474090621E-2,-7.261768728E-2
2.489703854E0,6.633928418E-2,3.261038288E-2,-7.474821806E-2
2.491708438E0,6.420875341E-2,3.367564455E-2,-8.007453382E-2
2.493713021E0,6.101296842E-2,3.793669865E-2,-7.474821806E-2
2.495717604E0,5.568664521E-2,3.580617532E-2,-8.007453382E-2
2.497722188E0,5.462138355E-2,3.793669865E-2,-8.220505714E-2
2.499726771E0,5.355612189E-2,4.219775274E-2,-8.327032626E-2
2.501731354E0,4.822980613E-2,4.006722942E-2,-8.327032626E-2
2.503735938E0,4.290348291E-2,3.367564455E-2,-8.220505714E-2
2.505740521E0,3.651190549E-2,3.474090621E-2,-8.113979548E-2
2.507745104E0,3.544664383E-2,3.261038288E-2,-8.007453382E-2
2.509749688E0,3.012032248E-2,3.474090621E-2,-8.433558792E-2
2.511754271E0,3.012032248E-2,2.941458672E-2,-8.113979548E-2
2.513758854E0,1.946769096E-2,2.728406340E-2,-7.900926471E-2
2.515763438E0,2.053295448E-2,2.302300930E-2,-7.794400305E-2
2.517768021E0,1.627190039E-2,2.089248039E-2,-7.794400305E-2
2.519772604E0,1.520663686E-2,1.556616370E-2,-7.581347972E-2
2.521777188E0,8.815055713E-3,1.343563665E-2,-7.155242562E-2
2.523781771E0,1.358211040E-3,4.913528450E-3,-7.368294895E-2
2.525786354E0,-1.837579533E-3,-4.127894063E-4,-7.474821806E-2
2.527790938E0,-6.098633632E-3,3.848264692E-3,-7.368294895E-2
2.529795521E0,-1.249021478E-2,-4.127894063E-4,-7.155242562E-2
2.531800104E0,-1.675126888E-2,-4.673843272E-3,-7.474821806E-2
2.533804688E0,-1.568600535E-2,-3.608579980E-3,-7.368294895E-2
2.535809271E0,-2.420811355E-2,-1.106542442E-2,-7.474821806E-2
2.537813854E0,-2.953443117E-2,-1.319595147E-2,-7.474821806E-2
2.539818438E0,-3.059969470E-2,-1.852227002E-2,-7.474821806E-2
2.541823021E0,-3.592601418E-2,-1.958753355E-2,-7.368294895E-2
2.543827604E0,-3.912180662E-2,-2.491385117E-2,-7.368294895E-2
2.545832188E0,-4.551338404E-2,-2.278332412E-2,-7.794400305E-2
2.547836771E0,-4.870917648E-2,-2.384858765E-2,-8.113979548E-2
2.549841354E0,-4.764391482E-2,-2.704437822E-2,-8.327032626E-2
2.551845938E0,-5.616602302E-2,-2.810964175E-2,-8.113979548E-2
2.553850521E0,-6.149233878E-2,-3.024016879E-2,-7.900926471E-2
2.555855104E0,-6.255760044E-2,-2.917490527E-2,-8.327032626E-2
2.557859688E0,-6.681865454E-2,-2.810964175E-2,-8.753137290E-2
2.559864271E0,-6.788392365E-2,-3.024016879E-2,-8.753137290E-2
2.561868854E0,-7.534076273E-2,-3.024016879E-2,-8.646611124E-2
2.563873438E0,-7.747129351E-2,-2.810964175E-2,-8.753137290E-2
2.565878021E0,-8.173234761E-2,-2.917490527E-2,-8.646611124E-2
2.567882604E0,-8.173234761E-2,-2.704437822E-2,-8.753137290E-2
2.569887188E0,-8.173234761E-2,-2.704437822E-2,-9.179243445E-2
2.571891771E0,-7.960182428E-2,-3.024016879E-2,-8.966190368E-2
2.573896354E0,-8.279760927E-2,-2.384858765E-2,-9.179243445E-2
2.575900938E0,-8.279760927E-2,-2.384858765E-2,-8.966190368E-2
2.577905521E0,-8.279760927E-2,-1.745700650E-2,-9.072716534E-2
2.579910104E0,-8.386287093E-2,-1.958753355E-2,-8.966190368E-2
2.581914688E0,-8.279760927E-2,-1.639174297E-2,-8.753137290E-2
2.583919271E0,-8.279760927E-2,-1.426121499E-2,-8.753137290E-2
2.585923854E0,-8.173234761E-2,-1.745700650E-2,-8.753137290E-2
2.587928438E0,-8.066708595E-2,-1.319595147E-2,-8.859664202E-2
2.589933021E0,-7.853655517E-2,-1.426121499E-2,-8.540084958E-2
2.591937604E0,-7.640603185E-2,-1.426121499E-2,-8.859664202E-2
2.593942188E0,-7.321023941E-2,-1.426121499E-2,-8.646611124E-2
2.595946771E0,-6.894918531E-2,-1.000016090E-2,-8.646611124E-2
2.597951354E0,-6.788392365E-2,-1.106542442E-2,-8.753137290E-2
2.599955938E0,-6.681865454E-2,-1.426121499E-2,-8.220505714E-2
2.601960521E0,-6.468813121E-2,-6.804370321E-3,-8.646611124E-2
2.603965104E0,-6.575339288E-2,-7.869633846E-3,-8.220505714E-2
2.605969688E0,-6.362286955E-2,-7.869633846E-3,-8.433558792E-2
2.607974271E0,-5.936181545E-2,-8.934897371E-3,-8.220505714E-2
2.609978854E0,-6.255760044E-2,-8.934897371E-3,-8.007453382E-2
2.611983438E0,-6.042707711E-2,-6.804370321E-3,-8.113979548E-2
2.613988021E0,-6.042707711E-2,-1.000016090E-2,-7.794400305E-2
2.615992604E0,-5.936181545E-2,-1.319595147E-2,-7.794400305E-2
2.617997188E0,-5.936181545E-2,-7.869633846E-3,-7.581347972E-2
2.620001771E0,-6.149233878E-2,-1.106542442E-2,-7.581347972E-2
2.622006354E0,-6.042707711E-2,-7.869633846E-3,-7.474821806E-2
2.624010938E0,-6.362286955E-2,-1.426121499E-2,-7.368294895E-2
2.626015521E0,-6.149233878E-2,-1.745700650E-2,-6.622610986E-2
2.628020104E0,-6.575339288E-2,-1.958753355E-2,-6.729137152E-2
2.630024688E0,-6.362286955E-2,-2.278332412E-2,-6.516083330E-2
2.632029271E0,-6.362286955E-2,-2.065279707E-2,-6.196504459E-2
2.634033854E0,-6.681865454E-2,-2.491385117E-2,-5.983451754E-2
2.636038438E0,-7.001444697E-2,-2.704437822E-2,-5.557346344E-2
2.638043021E0,-6.894918531E-2,-2.704437822E-2,-5.663872510E-2
2.640047604E0,-7.534076273E-2,-3.130543232E-2,-4.918188229E-2
2.642052240E0,-7.001444697E-2,-2.917490527E-2,-4.598609358E-2
2.644056875E0,-7.534076273E-2,-3.450122103E-2,-4.598609358E-2
2.646061510E0,-7.747129351E-2,-3.450122103E-2,-4.811661690E-2
2.648066146E0,-8.066708595E-2,-3.237069398E-2,-4.172503948E-2
2.650070781E0,-8.066708595E-2,-3.663174808E-2,-3.852924705E-2
2.652075417E0,-8.705866337E-2,-4.302332923E-2,-3.000714257E-2
2.654080052E0,-8.918919414E-2,-4.408859089E-2,-3.320293501E-2
2.656084688E0,-8.705866337E-2,-4.408859089E-2,-3.107240610E-2
2.658089323E0,-9.451550990E-2,-4.515385255E-2,-2.255029790E-2
2.660093958E0,-9.984182566E-2,-4.302332923E-2,-2.361556143E-2
2.662098594E0,-9.771130234E-2,-4.515385255E-2,-2.041977085E-2
2.664103229E0,-9.771130234E-2,-4.089280218E-2,-1.828924380E-2
2.666107865E0,-1.030376181E-1,-5.048017576E-2,-1.722398028E-2
2.668112500E0,-1.051681489E-1,-4.941490665E-2,-1.402818970E-2
2.670117135E0,-1.041028798E-1,-4.621912166E-2,-1.189766265E-2
2.672121771E0,-1.094291955E-1,-4.941490665E-2,-6.571344100E-3
2.674126406E0,-1.072986722E-1,-4.941490665E-2,-3.375553526E-3
2.676131042E0,-1.094291955E-1,-5.474122986E-2,-1.245026477E-3
2.678135677E0,-1.083639339E-1,-4.834964499E-2,-2.310290001E-3
2.680140313E0,-1.094291955E-1,-5.154543743E-2,4.081291147E-3
2.682144948E0,-1.062334105E-1,-5.048017576E-2,7.277081255E-3
2.684149583E0,-1.126249880E-1,-4.941490665E-2,1.047287136E-2
2.686154219E0,-1.083639339E-1,-4.941490665E-2,1.260339841E-2
2.688158854E0,-1.062334105E-1,-4.834964499E-2,1.366866194E-2
2.690163490E0,-1.051681489E-1,-4.621912166E-2,1.899497956E-2
2.692168125E0,-9.877656400E-2,-3.982753679E-2,2.006024309E-2
2.694172760E0,-1.009070873E-1,-3.450122103E-2,2.006024309E-2
2.696177396E0,-9.771130234E-2,-3.450122103E-2,2.219077013E-2
2.698182031E0,-9.451550990E-2,-3.556648269E-2,2.751708776E-2
2.700186667E0,-9.131971747E-2,-3.024016879E-2,3.071287833E-2
2.702191302E0,-9.025445580E-2,-2.597911470E-2,2.751708776E-2
2.704195938E0,-8.492814004E-2,-1.852227002E-2,3.284341097E-2
2.706200521E0,-8.173234761E-2,-1.958753355E-2,3.390867263E-2
2.708205104E0,-8.066708595E-2,-1.319595147E-2,3.497393429E-2
2.710209688E0,-7.534076273E-2,-1.000016090E-2,3.816972673E-2
2.712214271E0,-7.534076273E-2,-1.478052931E-3,4.030025378E-2
2.714218854E0,-7.214497775E-2,4.913528450E-3,4.243078083E-2
2.716223438E0,-6.468813121E-2,1.130510960E-2,4.669183493E-2
2.718228021E0,-6.468813121E-2,1.769668981E-2,4.669183493E-2
2.720232604E0,-5.829654634E-2,2.408827096E-2,4.775709659E-2
2.722237188E0,-5.829654634E-2,3.154512122E-2,4.988762736E-2
2.724241771E0,-5.936181545E-2,3.580617532E-2,5.521394312E-2
2.726246354E0,-5.190496892E-2,4.326301441E-2,5.521394312E-2
2.728250938E0,-4.551338404E-2,5.071986094E-2,5.521394312E-2
2.730255521E0,-4.444812238E-2,5.498091504E-2,5.840973556E-2
2.732260104E0,-4.444812238E-2,6.030723080E-2,6.267078221E-2
2.734264688E0,-3.912180662E-2,6.563355029E-2,6.586657465E-2
2.736269271E0,-3.273022175E-2,7.309039682E-2,6.799709797E-2
2.738273854E0,-3.059969470E-2,7.628618181E-2,7.012762129E-2
2.740278438E0,-2.740390413E-2,8.267776668E-2,7.225815207E-2
2.742283021E0,-2.314285003E-2,8.693882078E-2,7.438868284E-2
2.744287604E0,-2.207758650E-2,9.333039820E-2,8.078026026E-2
2.746292188E0,-1.568600535E-2,9.439565986E-2,7.864972949E-2
2.748296771E0,-1.355547830E-2,9.972198308E-2,8.291079104E-2
2.750301354E0,-1.675126888E-2,9.972198308E-2,8.717183769E-2
2.752305938E0,-1.035968773E-2,9.652619064E-2,8.397605270E-2
2.754310521E0,-6.098633632E-3,1.029177681E-1,8.823710680E-2
2.756315104E0,-1.142495126E-2,1.029177681E-1,9.356342256E-2
2.758319688E0,-7.163897157E-3,1.007872447E-1,9.356342256E-2
2.760324271E0,-2.902843058E-3,9.972198308E-2,9.036763012E-2
2.762328854E0,-7.723160088E-4,1.029177681E-1,9.249816090E-2
2.764333438E0,5.619265139E-3,9.972198308E-2,9.249816090E-2
2.766338021E0,5.619265139E-3,1.007872447E-1,9.143289924E-2
2.768342604E0,5.619265139E-3,9.652619064E-2,9.462868422E-2
2.770347188E0,6.684528664E-3,9.439565986E-2,9.249816090E-2
2.772351771E0,8.815055713E-3,9.013461322E-2,9.462868422E-2
2.774356354E0,1.414137334E-2,8.374302834E-2,9.036763012E-2
2.776360938E0,1.520663686E-2,8.587355167E-2,9.249816090E-2
2.778365521E0,1.627190039E-2,8.054723591E-2,9.249816090E-2
2.780370104E0,1.733716391E-2,7.309039682E-2,8.717183769E-2
2.782374688E0,2.053295448E-2,6.882933527E-2,8.930236846E-2
2.784379271E0,2.266348153E-2,6.882933527E-2,9.036763012E-2
2.786383854E0,2.798979916E-2,6.137249991E-2,8.504131436E-2
2.788388438E0,3.012032248E-2,5.924196914E-2,7.971499860E-2
2.790393021E0,3.118558787E-2,5.604618415E-2,8.184552193E-2
2.792397604E0,3.651190549E-2,5.391565338E-2,8.078026026E-2
2.794402188E0,3.864242882E-2,4.965459928E-2,7.864972949E-2
2.796406771E0,3.970769793E-2,4.432828352E-2,7.438868284E-2
2.798411354E0,4.077295959E-2,4.219775274E-2,7.545394450E-2
2.800415938E0,3.970769793E-2,4.006722942E-2,7.225815207E-2
2.802420521E0,4.290348291E-2,4.006722942E-2,6.906235963E-2
2.804425104E0,4.822980613E-2,4.006722942E-2,6.799709797E-2
2.806429688E0,5.036032945E-2,4.326301441E-2,6.267078221E-2
2.808434271E0,5.249086022E-2,4.219775274E-2,6.160552427E-2
2.810438854E0,5.568664521E-2,3.793669865E-2,5.947499722E-2
2.812443438E0,5.568664521E-2,4.432828352E-2,5.840973556E-2
2.814448021E0,5.888243765E-2,4.432828352E-2,5.734447017E-2
2.816452604E0,6.101296842E-2,4.326301441E-2,5.201815069E-2
2.818457188E0,5.888243765E-2,4.539354518E-2,5.308341607E-2
2.820461771E0,6.527401507E-2,4.539354518E-2,4.988762736E-2
2.822466354E0,6.740454584E-2,4.965459928E-2,5.095288903E-2
2.824470938E0,6.846980751E-2,4.965459928E-2,4.030025378E-2
2.826475521E0,7.166559994E-2,5.178512260E-2,3.923498839E-2
2.828480104E0,7.060033828E-2,5.604618415E-2,3.603919968E-2
2.830484688E0,7.486139238E-2,5.924196914E-2,3.497393429E-2
2.832489271E0,7.486139238E-2,5.924196914E-2,3.071287833E-2
2.834493854E0,7.699191570E-2,6.137249991E-2,2.858235128E-2
2.836498438E0,8.018770814E-2,6.563355029E-2,2.325603366E-2
2.838503021E0,8.444876224E-2,7.202512771E-2,2.219077013E-2
2.840507604E0,8.444876224E-2,7.202512771E-2,2.006024309E-2
2.842512188E0,8.657929301E-2,7.735144347E-2,1.473392546E-2
2.844516771E0,8.870981634E-2,7.522092015E-2,1.899497956E-2
2.846521354E0,8.764455467E-2,8.054723591E-2,1.047287136E-2
2.848525938E0,9.297087044E-2,8.267776668E-2,6.211817730E-3
2.850530521E0,9.403613210E-2,8.267776668E-2,6.211817730E-3
2.852535104E0,9.829718620E-2,8.693882078E-2,3.016027622E-3
2.854539688E0,1.004277170E-1,8.800408244E-2,1.950764097E-3
2.856544271E0,1.046887711E-1,8.800408244E-2,-6.571344100E-3
2.858548854E0,1.078845561E-1,9.439565986E-2,-4.440817051E-3
2.860553438E0,1.078845561E-1,9.652619064E-2,-8.701871149E-3
2.862558021E0,1.089498252E-1,9.652619064E-2,-1.083239913E-2
2.864562604E0,1.110803485E-1,1.029177681E-1,-1.402818970E-2
2.866567188E0,1.174719334E-1,1.029177681E-1,-1.509345323E-2
2.868571771E0,1.174719334E-1,1.029177681E-1,-1.509345323E-2
2.870576354E0,1.164066643E-1,1.039830372E-1,-1.615871675E-2
2.872580938E0,1.238635182E-1,1.039830372E-1,-2.148503438E-2
2.874585521E0,1.259940416E-1,1.125051454E-1,-1.722398028E-2
2.876590104E0,1.323856264E-1,1.082440913E-1,-1.828924380E-2
2.878594688E0,1.291898340E-1,1.093093529E-1,-1.509345323E-2
2.880599271E0,1.323856264E-1,1.125051454E-1,-1.722398028E-2
2.882603854E0,1.366466731E-1,1.114398763E-1,-1.722398028E-2
2.884608438E0,1.398424655E-1,1.135704070E-1,-1.402818970E-2
2.886613021E0,1.409077346E-1,1.103746146E-1,-6.571344100E-3
2.888617604E0,1.409077346E-1,1.093093529E-1,-8.701871149E-3
2.890622188E0,1.451687813E-1,1.103746146E-1,-4.440817051E-3
2.892626771E0,1.472993046E-1,1.082440913E-1,-5.506080575E-3
2.894631406E0,1.451687813E-1,1.093093529E-1,5.146554206E-3
2.896636042E0,1.483645737E-1,1.018525064E-1,6.211817730E-3
2.898640677E0,1.472993046E-1,1.039830372E-1,7.277081255E-3
2.900645313E0,1.504950970E-1,9.546092898E-2,1.366866194E-2
2.902649948E0,1.547561586E-1,9.652619064E-2,1.792971604E-2
2.904654583E0,1.494298428E-1,9.546092898E-2,1.686445251E-2
2.906659219E0,1.536908895E-1,8.800408244E-2,2.964761667E-2
2.908663854E0,1.515603662E-1,8.267776668E-2,3.177814558E-2
2.910668490E0,1.536908895E-1,8.161250502E-2,3.710446507E-2
2.912673125E0,1.547561586E-1,6.989460438E-2,3.816972673E-2
2.914677760E0,1.504950970E-1,6.350301951E-2,4.456130788E-2
2.916682396E0,1.494298428E-1,5.178512260E-2,4.882236198E-2
2.918687031E0,1.504950970E-1,4.539354518E-2,5.201815069E-2
2.920691667E0,1.515603662E-1,3.047985025E-2,6.054025516E-2
2.922696302E0,1.430382580E-1,2.195774391E-2,6.480130553E-2
2.924700938E0,1.451687813E-1,1.237037312E-2,7.225815207E-2
2.926705573E0,1.441035271E-1,6.524741184E-4,7.438868284E-2
2.928710208E0,1.419729888E-1,-1.106542442E-2,7.758446783E-2
2.930714844E0,1.409077346E-1,-2.171806060E-2,8.397605270E-2
2.932719479E0,1.387771964E-1,-3.663174808E-2,9.143289924E-2
2.934724115E0,1.377119422E-1,-5.154543743E-2,9.888973832E-2
2.936728750E0,1.355814040E-1,-6.326334178E-2,1.031507924E-1
2.938733385E0,1.334508806E-1,-8.243808150E-2,1.095423773E-1
2.940738021E0,1.313203573E-1,-9.522124380E-2,1.148686931E-1
2.942742656E0,1.334508806E-1,-1.090696678E-1,1.244560704E-1
2.944747292E0,1.323856264E-1,-1.250486225E-1,1.265866011E-1
2.946751927E0,1.302550882E-1,-1.420928538E-1,1.383045018E-1
2.948756563E0,1.281245649E-1,-1.570065320E-1,1.425655633E-1
2.950761198E0,1.270593107E-1,-1.740507483E-1,1.489571482E-1
2.952765833E0,1.238635182E-1,-1.932255030E-1,1.574792415E-1
2.954770469E0,1.206677258E-1,-2.134654969E-1,1.638708264E-1
2.956775104E0,1.227982491E-1,-2.294444591E-1,1.691971421E-1
2.958779740E0,1.174719334E-1,-2.486191988E-1,1.798497885E-1
2.960784375E0,1.174719334E-1,-2.667286396E-1,1.862413585E-1
2.962788958E0,1.110803485E-1,-2.890991867E-1,1.936982125E-1
2.964793542E0,1.132108793E-1,-3.104044497E-1,2.022203207E-1
2.966798125E0,1.100150868E-1,-3.306444585E-1,2.096771598E-1
2.968802708E0,1.078845561E-1,-3.487539291E-1,2.181992680E-1
2.970807292E0,1.036235094E-1,-3.796465695E-1,2.235255837E-1
2.972811875E0,9.936244786E-2,-3.924297392E-1,2.299171686E-1
2.974816458E0,1.004277170E-1,-4.190613329E-1,2.416350693E-1
2.976821042E0,9.510140121E-2,-4.371708035E-1,2.448308617E-1
2.978825625E0,9.190560877E-2,-4.648676515E-1,2.522876859E-1
2.980830208E0,8.764455467E-2,-4.840424061E-1,2.586792707E-1
2.982834792E0,8.551402390E-2,-5.096087456E-1,2.672013640E-1
2.984839375E0,8.338350058E-2,-5.373055935E-1,2.735929489E-1
2.986843958E0,7.912244648E-2,-5.618066788E-1,2.799845338E-1
2.988848542E0,7.486139238E-2,-5.841771960E-1,2.853108644E-1
2.990853125E0,6.846980751E-2,-6.118740439E-1,2.906371653E-1
2.992857708E0,6.633928418E-2,-6.353098750E-1,3.002245426E-1
2.994862292E0,6.314349174E-2,-6.587456465E-1,2.980940342E-1
2.996866875E0,5.675191432E-2,-6.853772402E-1,3.087466657E-1
2.998871458E0,5.249086022E-2,-7.098783255E-1,3.087466657E-1
3.000876042E0,4.822980613E-2,-7.375751734E-1,3.236603439E-1
3.002880625E0,4.822980613E-2,-7.578151822E-1,3.183340132E-1
3.004885208E0,4.396875203E-2,-7.865772843E-1,3.279213905E-1
3.006889792E0,3.864242882E-2,-8.089478016E-1,3.279213905E-1
3.008894375E0,3.651190549E-2,-8.302530646E-1,3.300519288E-1
3.010898958E0,3.225085139E-2,-8.622109890E-1,3.375087678E-1
3.012903542E0,3.012032248E-2,-8.845815063E-1,3.396393061E-1
3.014908125E0,2.585927211E-2,-9.080173373E-1,3.428350985E-1
3.016912708E0,2.053295448E-2,-9.314531088E-1,3.417698145E-1
3.018917292E0,2.053295448E-2,-9.538236260E-1,3.460308909E-1
3.020921875E0,1.414137334E-2,-9.740636349E-1,3.460308909E-1
3.022926458E0,1.201084629E-2,-9.943036437E-1,3.460308909E-1
3.024931042E0,1.094558276E-2,-1.014543653E0,3.492266536E-1
3.026935625E0,7.749792188E-3,-1.034783602E0,3.481613994E-1
3.028940208E0,7.749792188E-3,-1.052893043E0,3.439003527E-1
3.030944792E0,4.554001614E-3,-1.074198365E0,3.417698145E-1
3.032949375E0,2.423474565E-3,-1.089112043E0,3.332477212E-1
3.034953958E0,1.358211040E-3,-1.109352112E0,3.321824670E-1
3.036958542E0,-2.902843058E-3,-1.126396298E0,3.257908821E-1
3.038963125E0,-7.723160088E-4,-1.144505739E0,3.215298057E-1
3.040967708E0,-1.837579533E-3,-1.157288909E0,3.151382208E-1
3.042972292E0,-7.723160088E-4,-1.174333096E0,3.076813817E-1
3.044976875E0,2.929475158E-4,-1.184985757E0,3.023550808E-1
3.046981458E0,2.929475158E-4,-1.195638418E0,2.959634960E-1
3.048986042E0,-3.968106583E-3,-1.205225825E0,2.831803262E-1
3.050990625E0,-7.723160088E-4,-1.216943741E0,2.767887414E-1
3.052995208E0,-7.723160088E-4,-1.226531029E0,2.693319023E-1
3.054999792E0,-1.837579533E-3,-1.233987927E0,2.576140165E-1
3.057004375E0,-7.723160088E-4,-1.240379453E0,2.480266392E-1
3.059008958E0,1.358211040E-3,-1.241444707E0,2.427003235E-1
3.061013542E0,-7.723160088E-4,-1.247836351E0,2.309824377E-1
3.063018125E0,2.929475158E-4,-1.249966860E0,2.224603295E-1
3.065022708E0,2.929475158E-4,-1.252097368E0,2.107424289E-1
3.067027292E0,2.929475158E-4,-1.246771097E0,2.043508440E-1
3.069031875E0,2.423474565E-3,-1.246771097E0,1.905024201E-1
3.071036458E0,3.488738090E-3,-1.244640589E0,1.830455810E-1
3.073041042E0,2.929475158E-4,-1.245705843E0,1.745234579E-1
3.075045625E0,-7.723160088E-4,-1.240379453E0,1.638708264E-1
3.077050208E0,3.488738090E-3,-1.238248944E0,1.542834640E-1
3.079054792E0,2.423474565E-3,-1.221204758E0,1.446960866E-1
3.081059375E0,4.554001614E-3,-1.216943741E0,1.329781860E-1
3.083063958E0,2.929475158E-4,-1.202029943E0,1.265866011E-1
3.085068542E0,4.554001614E-3,-1.192442656E0,1.116729006E-1
3.087073125E0,2.423474565E-3,-1.180724740E0,1.095423773E-1
3.089077708E0,2.423474565E-3,-1.165811062E0,9.995500743E-2
3.091082292E0,-7.723160088E-4,-1.153027892E0,9.356342256E-2
3.093086875E0,1.358211040E-3,-1.130657315E0,8.291079104E-2
3.095091458E0,2.929475158E-4,-1.116808891E0,7.438868284E-2
3.097096042E0,2.423474565E-3,-1.100829959E0,6.906235963E-2
3.099100625E0,-2.902843058E-3,-1.077394128E0,6.054025516E-2
3.101105208E0,-1.837579533E-3,-1.058219433E0,5.414868146E-2
3.103109792E0,-2.902843058E-3,-1.034783602E0,4.775709659E-2
3.105114375E0,-1.837579533E-3,-1.010282516E0,4.136551917E-2
3.107118958E0,-7.163897157E-3,-9.900426269E-1,3.816972673E-2
3.109123542E0,-6.098633632E-3,-9.655415416E-1,2.751708776E-2
3.111128125E0,-8.229160681E-3,-9.410405159E-1,2.538656071E-2
3.113132708E0,-7.163897157E-3,-9.122783542E-1,2.112550661E-2
3.115137292E0,-7.163897157E-3,-8.899078369E-1,1.153813489E-2
3.117141875E0,-1.142495126E-2,-8.622109890E-1,1.260339841E-2
3.119146458E0,-8.229160681E-3,-8.323836327E-1,1.950764097E-3
3.121151094E0,-7.163897157E-3,-8.036214709E-1,4.081291147E-3
3.123155729E0,-1.462074183E-2,-7.759246230E-1,-1.797629520E-4
3.125160365E0,-1.035968773E-2,-7.429015040E-1,-2.310290001E-3
3.127165000E0,-1.142495126E-2,-7.130740881E-1,-2.310290001E-3
3.129169635E0,-9.294424206E-3,-6.843119860E-1,-1.083239913E-2
3.131174271E0,-7.163897157E-3,-6.502235532E-1,-4.440817051E-3
3.133178906E0,-5.033370107E-3,-6.172003746E-1,-1.083239913E-2
3.135183542E0,-3.968106583E-3,-5.831119418E-1,-1.083239913E-2
3.137188177E0,-6.098633632E-3,-5.500887632E-1,-1.083239913E-2
3.139192813E0,-3.968106583E-3,-5.106739998E-1,-8.701871149E-3
3.141197448E0,-1.837579533E-3,-4.765855670E-1,-9.767134674E-3
3.143202083E0,2.929475158E-4,-4.424971342E-1,-5.506080575E-3
3.145206719E0,1.358211040E-3,-4.084087014E-1,-6.571344100E-3
3.147211354E0,7.749792188E-3,-3.721897304E-1,-5.506080575E-3
3.149215990E0,6.684528664E-3,-3.349055052E-1,-6.571344100E-3
3.151220625E0,1.094558276E-2,-2.965560257E-1,-4.440817051E-3
3.153225260E0,1.094558276E-2,-2.603370547E-1,-5.506080575E-3
3.155229896E0,1.733716391E-2,-2.209223509E-1,-5.506080575E-3
3.157234531E0,1.627190039E-2,-1.878991723E-1,-4.440817051E-3
3.159239167E0,2.479400672E-2,-1.538107395E-1,-3.375553526E-3
3.161243802E0,2.585927211E-2,-1.186570451E-1,-3.375553526E-3
3.163248438E0,2.585927211E-2,-8.882965893E-2,8.855005726E-4
3.165253073E0,3.118558787E-2,-5.687175319E-2,-3.375553526E-3
3.167257708E0,3.970769793E-2,-2.171806060E-2,-8.701871149E-3
3.169262344E0,3.864242882E-2,9.174582548E-3,-5.506080575E-3
3.171266979E0,4.183822125E-2,4.006722942E-2,-8.701871149E-3
3.173271615E0,4.396875203E-2,5.817670748E-2,-1.296292618E-2
3.175276250E0,4.929506779E-2,8.374302834E-2,-1.935450733E-2
3.177280885E0,5.142559111E-2,1.071788296E-1,-1.722398028E-2
3.179285521E0,5.675191432E-2,1.242230386E-1,-2.361556143E-2
3.181290156E0,6.101296842E-2,1.423325092E-1,-3.000714257E-2
3.183294792E0,6.633928418E-2,1.604419947E-1,-3.213766962E-2
3.185299427E0,7.060033828E-2,1.796167344E-1,-3.959450871E-2
3.187304063E0,7.486139238E-2,1.913346350E-1,-3.746398538E-2
3.189308698E0,7.912244648E-2,2.062483281E-1,-4.172503948E-2
3.191313333E0,8.338350058E-2,2.179662287E-1,-5.024714768E-2
3.193317969E0,8.977507800E-2,2.307493836E-1,-5.876925588E-2
3.195322552E0,9.510140121E-2,2.424672842E-1,-5.557346344E-2
3.197327135E0,9.829718620E-2,2.552504838E-1,-6.089977920E-2
3.199331719E0,1.046887711E-1,2.690989077E-1,-6.729137152E-2
3.201336302E0,1.110803485E-1,2.754904926E-1,-6.942189485E-2
3.203340885E0,1.132108793E-1,2.882736623E-1,-7.155242562E-2
3.205345469E0,1.185372025E-1,2.957305014E-1,-7.261768728E-2
3.207350052E0,1.174719334E-1,3.031873405E-1,-7.581347972E-2
3.209354635E0,1.302550882E-1,3.149052262E-1,-7.687874138E-2
3.211359219E0,1.313203573E-1,3.276883960E-1,-8.113979548E-2
3.213363802E0,1.387771964E-1,3.394062817E-1,-8.433558792E-2
3.215368385E0,1.398424655E-1,3.489936590E-1,-8.540084958E-2
3.217372969E0,1.451687813E-1,3.639073670E-1,-8.540084958E-2
3.219377552E0,1.494298428E-1,3.777557909E-1,-9.072716534E-2
3.221382135E0,1.494298428E-1,3.884084225E-1,-9.072716534E-2
3.223386719E0,1.536908895E-1,4.033221006E-1,-9.392295778E-2
3.225391302E0,1.579519510E-1,4.139747322E-1,-9.179243445E-2
3.227395885E0,1.568866819E-1,4.288884401E-1,-9.285769612E-2
3.229400469E0,1.654087901E-1,4.427368641E-1,-9.179243445E-2
3.231405052E0,1.664740592E-1,4.608463347E-1,-9.818401188E-2
3.233409635E0,1.654087901E-1,4.746947587E-1,-9.392295778E-2
3.235414219E0,1.696698368E-1,4.864126742E-1,-9.498821944E-2
3.237418802E0,1.686045825E-1,5.002610683E-1,-9.605348110E-2
3.239423385E0,1.707351059E-1,5.087831616E-1,-9.392295778E-2
3.241427969E0,1.749961674E-1,5.236968398E-1,-9.179243445E-2
3.243432552E0,1.728656292E-1,5.322189927E-1,-8.540084958E-2
3.245437135E0,1.739308983E-1,5.492631793E-1,-8.753137290E-2
3.247441719E0,1.749961674E-1,5.556547642E-1,-8.540084958E-2
3.249446302E0,1.781919599E-1,5.695031881E-1,-7.900926471E-2
3.251450885E0,1.803224832E-1,5.790905356E-1,-7.900926471E-2
3.253455469E0,1.739308983E-1,5.833516121E-1,-7.687874138E-2
3.255460052E0,1.749961674E-1,5.908084512E-1,-7.261768728E-2
3.257464635E0,1.792572141E-1,5.982652903E-1,-7.155242562E-2
3.259469219E0,1.781919599E-1,6.067873836E-1,-6.835663319E-2
3.261473802E0,1.781919599E-1,6.046568751E-1,-7.048715651E-2
3.263478385E0,1.813877374E-1,6.067873836E-1,-6.835663319E-2
3.265482969E0,1.835182756E-1,6.121137142E-1,-6.196504459E-2
3.267487552E0,1.856487989E-1,6.110484600E-1,-5.983451754E-2
3.269492135E0,1.856487989E-1,6.142442822E-1,-5.663872510E-2
3.271496719E0,1.877793223E-1,6.067873836E-1,-5.344293639E-2
3.273501302E0,1.888445914E-1,6.078526974E-1,-5.024714768E-2
3.275505885E0,1.941709071E-1,6.046568751E-1,-4.918188229E-2
3.277510469E0,1.941709071E-1,5.972000360E-1,-4.385556281E-2
3.279515052E0,1.931056380E-1,5.886779428E-1,-4.492082819E-2
3.281519635E0,1.963014305E-1,5.854821205E-1,-4.279030114E-2
3.283524219E0,1.973666996E-1,5.822863579E-1,-3.533345461E-2
3.285528802E0,2.005624920E-1,5.780252814E-1,-3.320293501E-2
3.287533385E0,2.026930153E-1,5.673726797E-1,-3.746398538E-2
3.289537969E0,2.090846002E-1,5.556547642E-1,-3.426819295E-2
3.291542552E0,2.101498544E-1,5.471326709E-1,-3.533345461E-2
3.293547135E0,2.144109160E-1,5.407410860E-1,-2.894187905E-2
3.295551719E0,2.176067084E-1,5.311536789E-1,-3.213766962E-2
3.297556302E0,2.208024859E-1,5.183705688E-1,-2.681135200E-2
3.299560885E0,2.218677551E-1,5.077179074E-1,-2.574608847E-2
3.301565469E0,2.261288166E-1,4.970652759E-1,-2.468082495E-2
3.303570052E0,2.250635475E-1,4.842821360E-1,-2.787661552E-2
3.305574635E0,2.357161790E-1,4.768252969E-1,-3.107240610E-2
3.307579219E0,2.357161790E-1,4.683031738E-1,-2.894187905E-2
3.309583802E0,2.346509248E-1,4.555200338E-1,-2.787661552E-2
3.311588385E0,2.357161790E-1,4.459326565E-1,-3.426819295E-2
3.313592969E0,2.389119714E-1,4.374105334E-1,-3.320293501E-2
3.315597552E0,2.410424948E-1,4.235621095E-1,-3.533345461E-2
3.317602135E0,2.442383021E-1,4.139747322E-1,-3.852924705E-2
3.319606719E0,2.453035563E-1,4.054526389E-1,-4.279030114E-2
3.321611302E0,2.399772406E-1,3.969305158E-1,-4.492082819E-2
3.323615885E0,2.453035563E-1,3.862778842E-1,-5.131240934E-2
3.325620469E0,2.399772406E-1,3.777557909E-1,-4.705135524E-2
3.327625052E0,2.410424948E-1,3.671031594E-1,-5.876925588E-2
3.329629635E0,2.378467023E-1,3.596462905E-1,-6.089977920E-2
3.331634219E0,2.346509248E-1,3.521894515E-1,-6.409557164E-2
3.333638854E0,2.346509248E-1,3.489936590E-1,-6.516083330E-2
3.335643490E0,2.303898633E-1,3.362105191E-1,-6.835663319E-2
3.337648125E0,2.293246090E-1,3.351452351E-1,-7.048715651E-2
3.339652760E0,2.282593399E-1,3.234273493E-1,-7.261768728E-2
3.341657396E0,2.250635475E-1,3.170357645E-1,-7.581347972E-2
3.343662031E0,2.229330242E-1,3.149052262E-1,-8.007453382E-2
3.345666667E0,2.208024859E-1,3.063831329E-1,-8.220505714E-2
3.347671302E0,2.176067084E-1,3.021220863E-1,-8.540084958E-2
3.349675938E0,2.144109160E-1,2.946652174E-1,-8.859664202E-2
3.351680573E0,2.122803926E-1,2.925347090E-1,-8.859664202E-2
3.353685208E0,2.101498544E-1,2.829473317E-1,-9.285769612E-2
3.355689844E0,2.026930153E-1,2.765557468E-1,-9.179243445E-2
3.357694479E0,2.005624920E-1,2.712294161E-1,-9.498821944E-2
3.359699115E0,1.994972229E-1,2.627073228E-1,-9.924927354E-2
3.361703750E0,1.963014305E-1,2.595115304E-1,-1.045755893E-1
3.363708385E0,1.973666996E-1,2.541852295E-1,-1.024450660E-1
3.365713021E0,1.931056380E-1,2.456630766E-1,-1.077713817E-1
3.367717656E0,1.867140532E-1,2.403367460E-1,-1.056408584E-1
3.369722292E0,1.888445914E-1,2.392714918E-1,-1.120324358E-1
3.371726927E0,1.845835298E-1,2.275535911E-1,-1.130976975E-1
3.373731563E0,1.824530065E-1,2.232925445E-1,-1.205545440E-1
3.375736198E0,1.803224832E-1,2.190314829E-1,-1.226850748E-1
3.377740833E0,1.771266907E-1,2.137051672E-1,-1.248155981E-1
3.379745469E0,1.771266907E-1,2.126399130E-1,-1.312071681E-1
3.381750104E0,1.739308983E-1,2.051830590E-1,-1.322724372E-1
3.383754740E0,1.739308983E-1,1.987914741E-1,-1.365334839E-1
3.385759375E0,1.696698368E-1,2.009220123E-1,-1.397292763E-1
3.387764010E0,1.707351059E-1,1.998567432E-1,-1.439903229E-1
3.389768646E0,1.686045825E-1,1.987914741E-1,-1.482513845E-1
3.391773281E0,1.611477435E-1,1.977262199E-1,-1.493166536E-1
3.393777917E0,1.622129977E-1,1.987914741E-1,-1.567734927E-1
3.395782552E0,1.590172052E-1,2.051830590E-1,-1.578387469E-1
3.397787188E0,1.579519510E-1,2.062483281E-1,-1.631650776E-1
3.399791823E0,1.579519510E-1,2.094441205E-1,-1.652956009E-1
3.401796458E0,1.558214128E-1,2.126399130E-1,-1.695566475E-1
3.403801094E0,1.526256204E-1,2.222272754E-1,-1.706219167E-1
3.405805729E0,1.504950970E-1,2.296841294E-1,-1.738177091E-1
3.407810365E0,1.494298428E-1,2.371409684E-1,-1.738177091E-1
3.409815000E0,1.430382580E-1,2.435325384E-1,-1.802092940E-1
3.411819635E0,1.430382580E-1,2.563157380E-1,-1.844703406E-1
3.413824219E0,1.419729888E-1,2.680336535E-1,-1.866008639E-1
3.415828802E0,1.398424655E-1,2.733599544E-1,-1.876661330E-1
3.417833385E0,1.387771964E-1,2.840125859E-1,-1.897966564E-1
3.419837969E0,1.377119422E-1,2.967957556E-1,-1.940577179E-1
3.421842552E0,1.345161498E-1,3.053178489E-1,-1.972535104E-1
3.423847135E0,1.377119422E-1,3.149052262E-1,-1.961882412E-1
3.425851719E0,1.323856264E-1,3.244926035E-1,-1.961882412E-1
3.427856302E0,1.302550882E-1,3.351452351E-1,-1.993840337E-1
3.429860885E0,1.302550882E-1,3.426020741E-1,-2.004493028E-1
3.431865469E0,1.313203573E-1,3.543199897E-1,-1.983187646E-1
3.433870052E0,1.281245649E-1,3.639073670E-1,-1.972535104E-1
3.435874635E0,1.291898340E-1,3.713642061E-1,-1.972535104E-1
3.437879219E0,1.259940416E-1,3.766905069E-1,-1.929924488E-1
3.439883802E0,1.281245649E-1,3.916042149E-1,-1.897966564E-1
3.441888385E0,1.323856264E-1,3.937347233E-1,-1.887314022E-1
3.443892969E0,1.291898340E-1,3.990610540E-1,-1.823398173E-1
3.445897552E0,1.291898340E-1,4.033221006E-1,-1.780787557E-1
3.447902135E0,1.334508806E-1,4.129094779E-1,-1.716871858E-1
3.449906719E0,1.334508806E-1,4.182358086E-1,-1.663608700E-1
3.451911302E0,1.334508806E-1,4.193010628E-1,-1.642303318E-1
3.453915885E0,1.355814040E-1,4.235621095E-1,-1.589040160E-1
3.455920469E0,1.366466731E-1,4.288884401E-1,-1.514471769E-1
3.457925052E0,1.398424655E-1,4.310189486E-1,-1.450555921E-1
3.459929635E0,1.430382580E-1,4.331494868E-1,-1.407945305E-1
3.461934219E0,1.409077346E-1,4.352800250E-1,-1.333376914E-1
3.463938802E0,1.419729888E-1,4.331494868E-1,-1.280113757E-1
3.465943385E0,1.451687813E-1,4.352800250E-1,-1.216198057E-1
3.467947969E0,1.472993046E-1,4.310189486E-1,-1.141629666E-1
3.469952552E0,1.441035271E-1,4.363452792E-1,-1.099019125E-1
3.471957135E0,1.430382580E-1,4.299536943E-1,-1.013798043E-1
3.473961719E0,1.419729888E-1,4.288884401E-1,-9.818401188E-2
3.475966302E0,1.430382580E-1,4.288884401E-1,-9.498821944E-2
3.477970885E0,1.430382580E-1,4.246273935E-1,-8.540084958E-2
3.479975469E0,1.398424655E-1,4.171705246E-1,-7.581347972E-2
3.481980052E0,1.398424655E-1,4.139747322E-1,-7.794400305E-2
3.483984635E0,1.355814040E-1,4.086484313E-1,-6.622610986E-2
3.485989219E0,1.345161498E-1,4.065178931E-1,-6.409557164E-2
3.487993802E0,1.270593107E-1,3.990610540E-1,-5.557346344E-2
3.489998385E0,1.217329800E-1,3.948000073E-1,-5.557346344E-2
3.492002969E0,1.238635182E-1,3.862778842E-1,-4.598609358E-2
3.494007552E0,1.142761409E-1,3.745599985E-1,-4.065977409E-2
3.496012135E0,1.100150868E-1,3.713642061E-1,-3.533345461E-2
3.498016719E0,1.068192944E-1,3.660378754E-1,-2.894187905E-2
3.500021302E0,1.014929786E-1,3.543199897E-1,-2.574608847E-2
3.502025885E0,9.297087044E-2,3.511241972E-1,-1.722398028E-2
3.504030469E0,8.870981634E-2,3.394062817E-1,-9.767134674E-3
3.506035052E0,8.231823146E-2,3.340799809E-1,-4.440817051E-3
3.508039635E0,8.018770814E-2,3.223620951E-1,-2.310290001E-3
3.510044219E0,7.379612327E-2,3.149052262E-1,1.153813489E-2
3.512048802E0,6.740454584E-2,3.031873405E-1,1.792971604E-2
3.514053385E0,6.420875341E-2,2.904041708E-1,2.006024309E-2
3.516057969E0,5.568664521E-2,2.829473317E-1,2.432129718E-2
3.518062552E0,5.355612189E-2,2.722947001E-1,3.177814558E-2
3.520067135E0,4.609927535E-2,2.595115304E-1,4.136551917E-2
3.522071719E0,4.609927535E-2,2.520546913E-1,4.562657326E-2
3.524076302E0,4.077295959E-2,2.467283309E-1,4.669183493E-2
3.526080885E0,3.012032248E-2,2.360756993E-1,5.734447017E-2
3.528085469E0,2.905506082E-2,2.254230678E-1,6.267078221E-2
3.530090052E0,2.372874506E-2,2.147704363E-1,6.693183631E-2
3.532094635E0,2.372874506E-2,2.083788514E-1,7.012762129E-2
3.534099219E0,1.840242743E-2,1.998567432E-1,7.438868284E-2
3.536103802E0,6.684528664E-3,1.892041117E-1,8.078026026E-2
3.538108438E0,1.094558276E-2,1.806820035E-1,8.504131436E-2
3.540113073E0,4.554001614E-3,1.753556877E-1,8.397605270E-2
3.542117708E0,2.423474565E-3,1.647030413E-1,8.717183769E-2
3.544122344E0,-5.033370107E-3,1.572462022E-1,9.036763012E-2
3.546126979E0,-3.968106583E-3,1.487240940E-1,9.356342256E-2
3.548131615E0,-9.294424206E-3,1.433977783E-1,9.569394588E-2
3.550136250E0,-1.035968773E-2,1.423325092E-1,1.010202691E-1
3.552140885E0,-1.355547830E-2,1.359409392E-1,9.675921500E-2
3.554145521E0,-1.781653240E-2,1.295493543E-1,1.031507924E-1
3.556150156E0,-1.675126888E-2,1.306146085E-1,1.020855308E-1
3.558154792E0,-1.888179593E-2,1.242230386E-1,1.052813232E-1
3.560159427E0,-1.994705945E-2,1.210272536E-1,1.095423773E-1
3.562164063E0,-1.994705945E-2,1.199619845E-1,1.095423773E-1
3.564168698E0,-2.420811355E-2,1.125051454E-1,1.084771156E-1
3.566173333E0,-1.888179593E-2,1.157009378E-1,1.084771156E-1
3.568177969E0,-1.994705945E-2,1.146356687E-1,1.095423773E-1
3.570182604E0,-2.207758650E-2,1.178314611E-1,1.084771156E-1
3.572187240E0,-2.207758650E-2,1.167661920E-1,1.116729006E-1
3.574191875E0,-2.420811355E-2,1.188967302E-1,1.095423773E-1
3.576196510E0,-2.207758650E-2,1.210272536E-1,1.074118465E-1
3.578201146E0,-2.527337708E-2,1.157009378E-1,1.084771156E-1
3.580205781E0,-1.994705945E-2,1.263535619E-1,1.042160541E-1
3.582210417E0,-2.846916765E-2,1.263535619E-1,1.042160541E-1
3.584215052E0,-2.527337708E-2,1.295493543E-1,1.031507924E-1
3.586219688E0,-2.846916765E-2,1.316798776E-1,9.995500743E-2
3.588224323E0,-2.633864060E-2,1.380714625E-1,9.782447666E-2
3.590228958E0,-2.846916765E-2,1.455283016E-1,9.995500743E-2
3.592233594E0,-2.846916765E-2,1.476588249E-1,9.036763012E-2
3.594238229E0,-2.953443117E-2,1.508546174E-1,8.930236846E-2
3.596242865E0,-3.273022175E-2,1.572462022E-1,8.397605270E-2
3.598247500E0,-3.059969470E-2,1.625725180E-1,8.717183769E-2
3.600252135E0,-3.699127585E-2,1.647030413E-1,8.397605270E-2
3.602256771E0,-3.699127585E-2,1.668335795E-1,8.078026026E-2
3.604261406E0,-3.699127585E-2,1.732251644E-1,7.545394450E-2
3.606266042E0,-4.125232995E-2,1.817472577E-1,7.332341373E-2
3.608270677E0,-3.805654123E-2,1.828125268E-1,7.012762129E-2
3.610275313E0,-4.231759906E-2,1.902693808E-1,6.906235963E-2
3.612279948E0,-3.805654123E-2,1.902693808E-1,6.160552427E-2
3.614284583E0,-4.231759906E-2,1.987914741E-1,5.734447017E-2
3.616289219E0,-4.444812238E-2,2.009220123E-1,5.840973556E-2
3.618293854E0,-4.231759906E-2,2.062483281E-1,5.947499722E-2
3.620298490E0,-4.657865316E-2,2.073135972E-1,5.201815069E-2
3.622303073E0,-4.338286072E-2,2.126399130E-1,4.882236198E-2
3.624307656E0,-4.551338404E-2,2.137051672E-1,4.669183493E-2
3.626312240E0,-4.551338404E-2,2.147704363E-1,4.349604249E-2
3.628316823E0,-4.657865316E-2,2.169009596E-1,4.456130788E-2
3.630321406E0,-4.764391482E-2,2.169009596E-1,4.030025378E-2
3.632325990E0,-4.338286072E-2,2.264883369E-1,3.603919968E-2
3.634330573E0,-4.125232995E-2,2.200967520E-1,3.497393429E-2
3.636335156E0,-4.444812238E-2,2.254230678E-1,3.177814558E-2
3.638339740E0,-4.125232995E-2,2.275535911E-1,2.858235128E-2
3.640344323E0,-4.018706828E-2,2.307493836E-1,2.325603366E-2
3.642348906E0,-4.231759906E-2,2.254230678E-1,2.645182423E-2
3.644353490E0,-4.231759906E-2,2.243578136E-1,1.899497956E-2
3.646358073E0,-3.805654123E-2,2.264883369E-1,2.006024309E-2
3.648362656E0,-3.912180662E-2,2.264883369E-1,1.792971604E-2
3.650367240E0,-3.805654123E-2,2.286188602E-1,1.473392546E-2
3.652371823E0,-3.592601418E-2,2.222272754E-1,1.686445251E-2
3.654376406E0,-3.486074880E-2,2.243578136E-1,1.047287136E-2
3.656380990E0,-3.805654123E-2,2.211620212E-1,1.260339841E-2
3.658385573E0,-3.273022175E-2,2.232925445E-1,9.407607839E-3
3.660390156E0,-3.273022175E-2,2.190314829E-1,1.153813489E-2
3.662394740E0,-3.379548341E-2,2.169009596E-1,6.211817730E-3
3.664399323E0,-3.166496009E-2,2.232925445E-1,5.146554206E-3
3.666403906E0,-3.166496009E-2,2.169009596E-1,4.081291147E-3
3.668408490E0,-3.379548341E-2,2.179662287E-1,8.342344314E-3
3.670413073E0,-3.059969470E-2,2.169009596E-1,4.081291147E-3
3.672417656E0,-3.059969470E-2,2.179662287E-1,6.211817730E-3
3.674425417E0,-2.633864060E-2,2.200967520E-1,7.277081255E-3
3.676427396E0,-2.846916765E-2,2.190314829E-1,8.855005726E-4
3.678429479E0,-2.740390413E-2,2.169009596E-1,6.211817730E-3
3.680431719E0,-2.740390413E-2,2.179662287E-1,6.211817730E-3
3.682434219E0,-2.633864060E-2,2.126399130E-1,7.277081255E-3
3.684437083E0,-2.846916765E-2,2.126399130E-1,8.342344314E-3
3.686440365E0,-2.846916765E-2,2.147704363E-1,7.277081255E-3
3.688444063E0,-2.633864060E-2,2.158356905E-1,1.047287136E-2
3.690448229E0,-2.846916765E-2,2.126399130E-1,6.211817730E-3
3.692452865E0,-2.420811355E-2,2.137051672E-1,7.277081255E-3
3.694457917E0,-2.633864060E-2,2.147704363E-1,1.047287136E-2
3.696463385E0,-2.740390413E-2,2.126399130E-1,1.047287136E-2
3.698469219E0,-2.527337708E-2,2.105093747E-1,1.260339841E-2
3.700475313E0,-2.527337708E-2,2.073135972E-1,1.473392546E-2
3.702481615E0,-2.420811355E-2,2.105093747E-1,1.260339841E-2
3.704488073E0,-2.420811355E-2,2.169009596E-1,1.579918899E-2
3.706494583E0,-2.314285003E-2,2.105093747E-1,1.473392546E-2
3.708501094E0,-2.740390413E-2,2.073135972E-1,2.006024309E-2
3.710505729E0,-2.314285003E-2,2.083788514E-1,1.686445251E-2
3.712510313E0,-2.527337708E-2,2.062483281E-1,1.792971604E-2
3.714514896E0,-2.314285003E-2,2.094441205E-1,1.686445251E-2
3.716519479E0,-2.633864060E-2,2.073135972E-1,2.006024309E-2
3.718524063E0,-2.207758650E-2,2.041178048E-1,1.686445251E-2
3.720528646E0,-2.420811355E-2,2.051830590E-1,2.112550661E-2
3.722533229E0,-2.527337708E-2,2.009220123E-1,2.006024309E-2
3.724537813E0,-2.314285003E-2,2.062483281E-1,1.792971604E-2
3.726542396E0,-2.314285003E-2,1.977262199E-1,2.325603366E-2
3.728546979E0,-2.420811355E-2,1.966609508E-1,1.686445251E-2
3.730551563E0,-2.314285003E-2,1.934651583E-1,2.219077013E-2
3.732556146E0,-1.994705945E-2,1.902693808E-1,2.006024309E-2
3.734560729E0,-2.101232298E-2,1.902693808E-1,2.006024309E-2
3.736565313E0,-1.888179593E-2,1.945304275E-1,1.473392546E-2
3.738569896E0,-1.781653240E-2,1.838777959E-1,1.473392546E-2
3.740574479E0,-1.781653240E-2,1.849430501E-1,1.686445251E-2
3.742579063E0,-1.675126888E-2,1.774862111E-1,1.792971604E-2
3.744583646E0,-1.994705945E-2,1.732251644E-1,1.899497956E-2
3.746588229E0,-1.675126888E-2,1.678988338E-1,1.579918899E-2
3.748592813E0,-1.994705945E-2,1.615072638E-1,1.792971604E-2
3.750597396E0,-1.781653240E-2,1.561809480E-1,1.686445251E-2
3.752601979E0,-1.568600535E-2,1.519198865E-1,1.366866194E-2
3.754606563E0,-1.781653240E-2,1.487240940E-1,1.792971604E-2
3.756611146E0,-1.888179593E-2,1.444630474E-1,1.792971604E-2
3.758615729E0,-1.675126888E-2,1.412672549E-1,1.579918899E-2
3.760620313E0,-1.568600535E-2,1.327451468E-1,1.260339841E-2
3.762624896E0,-1.462074183E-2,1.231577769E-1,1.473392546E-2
3.764629479E0,-1.781653240E-2,1.210272536E-1,1.792971604E-2
3.766634063E0,-1.355547830E-2,1.135704070E-1,1.686445251E-2
3.768638646E0,-1.462074183E-2,1.050482988E-1,1.579918899E-2
3.770643229E0,-1.462074183E-2,1.039830372E-1,1.366866194E-2
3.772647813E0,-1.249021478E-2,9.865672141E-2,1.579918899E-2
3.774652396E0,-1.568600535E-2,8.480829000E-2,1.579918899E-2
3.776656979E0,-1.249021478E-2,8.267776668E-2,1.366866194E-2
3.778661563E0,-1.035968773E-2,7.522092015E-2,1.260339841E-2
3.780666146E0,-8.229160681E-3,6.882933527E-2,1.366866194E-2
3.782670729E0,-1.035968773E-2,6.243776157E-2,1.047287136E-2
3.784675313E0,-1.035968773E-2,5.711144581E-2,1.153813489E-2
3.786679896E0,-1.462074183E-2,4.965459928E-2,1.366866194E-2
3.788684479E0,-1.355547830E-2,4.006722942E-2,1.153813489E-2
3.790689063E0,-1.142495126E-2,3.154512122E-2,1.473392546E-2
3.792693646E0,-1.355547830E-2,2.515353262E-2,1.260339841E-2
3.794698229E0,-1.249021478E-2,1.876195334E-2,8.342344314E-3
3.796702813E0,-1.462074183E-2,1.130510960E-2,9.407607839E-3
3.798707396E0,-1.462074183E-2,3.848264692E-3,1.260339841E-2
3.800711979E0,-1.355547830E-2,-4.127894063E-4,1.366866194E-2
3.802716563E0,-1.462074183E-2,-4.673843272E-3,1.153813489E-2
3.804721146E0,-1.675126888E-2,-1.106542442E-2,1.473392546E-2
3.806725729E0,-1.355547830E-2,-1.958753355E-2,1.260339841E-2
3.808730313E0,-1.781653240E-2,-2.597911470E-2,1.366866194E-2
3.810734896E0,-1.568600535E-2,-3.343595937E-2,1.366866194E-2
3.812739479E0,-2.101232298E-2,-3.982753679E-2,1.366866194E-2
3.814744063E0,-1.994705945E-2,-4.515385255E-2,1.153813489E-2
3.816748646E0,-2.207758650E-2,-4.728438333E-2,1.260339841E-2
3.818753229E0,-2.101232298E-2,-5.261069909E-2,1.047287136E-2
3.820757813E0,-1.994705945E-2,-5.580649152E-2,1.473392546E-2
3.822762396E0,-2.420811355E-2,-7.072018087E-2,1.366866194E-2
3.824767031E0,-2.527337708E-2,-6.965491921E-2,1.047287136E-2
3.826771667E0,-2.740390413E-2,-7.178544998E-2,1.047287136E-2
3.828776302E0,-2.953443117E-2,-7.178544998E-2,8.342344314E-3
3.830780938E0,-3.166496009E-2,-7.924228907E-2,8.342344314E-3
3.832785573E0,-2.740390413E-2,-8.137281984E-2,7.277081255E-3
3.834790208E0,-3.166496009E-2,-8.563387394E-2,1.153813489E-2
3.836794844E0,-3.059969470E-2,-8.669913560E-2,9.407607839E-3
3.838799479E0,-3.273022175E-2,-8.989492804E-2,5.146554206E-3
3.840804115E0,-3.486074880E-2,-9.096018970E-2,3.016027622E-3
3.842808750E0,-3.166496009E-2,-9.202545136E-2,3.016027622E-3
3.844813385E0,-3.805654123E-2,-8.882965893E-2,3.016027622E-3
3.846818021E0,-3.379548341E-2,-9.309072047E-2,3.016027622E-3
3.848822656E0,-3.592601418E-2,-9.309072047E-2,-1.797629520E-4
3.850827292E0,-4.018706828E-2,-9.948229790E-2,-1.797629520E-4
3.852831927E0,-3.912180662E-2,-9.522124380E-2,-3.375553526E-3
3.854836563E0,-4.125232995E-2,-9.841703624E-2,1.950764097E-3
3.856841198E0,-4.125232995E-2,-9.309072047E-2,-3.375553526E-3
3.858845833E0,-4.338286072E-2,-9.628650546E-2,-3.375553526E-3
3.860850469E0,-4.125232995E-2,-9.522124380E-2,-3.375553526E-3
3.862855104E0,-4.231759906E-2,-9.841703624E-2,-6.571344100E-3
3.864859740E0,-4.338286072E-2,-9.096018970E-2,-8.701871149E-3
3.866864375E0,-4.338286072E-2,-9.309072047E-2,-8.701871149E-3
3.868869010E0,-4.338286072E-2,-9.202545136E-2,-9.767134674E-3
3.870873646E0,-4.125232995E-2,-9.096018970E-2,-4.440817051E-3
3.872878281E0,-4.231759906E-2,-9.096018970E-2,-9.767134674E-3
3.874882917E0,-4.444812238E-2,-9.415598214E-2,-7.636607625E-3
3.876887552E0,-4.125232995E-2,-8.989492804E-2,-8.701871149E-3
3.878892188E0,-4.338286072E-2,-9.096018970E-2,-8.701871149E-3
3.880896823E0,-4.338286072E-2,-8.882965893E-2,-1.296292618E-2
3.882901458E0,-4.551338404E-2,-8.776439726E-2,-1.189766265E-2
3.884906094E0,-4.231759906E-2,-8.989492804E-2,-1.402818970E-2
3.886910729E0,-4.551338404E-2,-9.309072047E-2,-1.083239913E-2
3.888915365E0,-4.551338404E-2,-8.669913560E-2,-1.402818970E-2
3.890920000E0,-3.699127585E-2,-8.137281984E-2,-1.296292618E-2
3.892924635E0,-4.231759906E-2,-8.456861228E-2,-1.083239913E-2
3.894929271E0,-4.338286072E-2,-7.817702740E-2,-1.722398028E-2
3.896933906E0,-4.125232995E-2,-7.924228907E-2,-1.189766265E-2
3.898938542E0,-4.125232995E-2,-7.924228907E-2,-1.296292618E-2
3.900943177E0,-4.231759906E-2,-7.924228907E-2,-1.296292618E-2
3.902947813E0,-3.805654123E-2,-7.924228907E-2,-8.701871149E-3
3.904952448E0,-4.444812238E-2,-7.391597331E-2,-9.767134674E-3
3.906957083E0,-4.444812238E-2,-7.391597331E-2,-1.189766265E-2
3.908961719E0,-4.231759906E-2,-7.072018087E-2,-1.083239913E-2
3.910966354E0,-4.551338404E-2,-7.711176574E-2,-8.701871149E-3
3.912970938E0,-4.444812238E-2,-7.178544998E-2,-1.296292618E-2
3.914975521E0,-4.551338404E-2,-6.965491921E-2,-9.767134674E-3
3.916980104E0,-4.551338404E-2,-7.178544998E-2,-7.636607625E-3
3.918984688E0,-4.657865316E-2,-7.072018087E-2,-8.701871149E-3
3.920989271E0,-4.551338404E-2,-7.072018087E-2,-5.506080575E-3
3.922993854E0,-4.657865316E-2,-6.752439588E-2,-7.636607625E-3
3.924998438E0,-4.657865316E-2,-6.539386511E-2,-6.571344100E-3
3.927003021E0,-4.870917648E-2,-6.219806895E-2,-1.245026477E-3
3.929007604E0,-4.870917648E-2,-6.539386511E-2,-1.797629520E-4
3.931012188E0,-4.551338404E-2,-6.219806895E-2,-2.310290001E-3
3.933016771E0,-4.977443814E-2,-6.326334178E-2,-1.245026477E-3
3.935021354E0,-5.190496892E-2,-6.645912677E-2,-1.245026477E-3
3.937025938E0,-5.083970726E-2,-6.326334178E-2,5.146554206E-3
3.939030521E0,-4.870917648E-2,-6.113280728E-2,3.016027622E-3
3.941035104E0,-5.297023058E-2,-6.219806895E-2,6.211817730E-3
3.943039688E0,-5.510076135E-2,-6.219806895E-2,4.081291147E-3
3.945044271E0,-5.190496892E-2,-6.113280728E-2,7.277081255E-3
3.947048854E0,-5.297023058E-2,-6.645912677E-2,6.211817730E-3
3.949053438E0,-5.297023058E-2,-5.900228396E-2,7.277081255E-3
3.951058021E0,-5.616602302E-2,-6.326334178E-2,1.260339841E-2
3.953062604E0,-5.190496892E-2,-6.326334178E-2,1.473392546E-2
3.955067188E0,-5.403549224E-2,-6.645912677E-2,1.473392546E-2
3.957071771E0,-5.616602302E-2,-6.539386511E-2,1.366866194E-2
3.959076354E0,-5.403549224E-2,-7.072018087E-2,1.473392546E-2
3.961080938E0,-5.829654634E-2,-7.072018087E-2,1.899497956E-2
3.963085521E0,-5.616602302E-2,-6.965491921E-2,1.792971604E-2
3.965090104E0,-5.510076135E-2,-7.604650408E-2,2.006024309E-2
3.967094688E0,-5.403549224E-2,-7.285071164E-2,1.899497956E-2
3.969099271E0,-5.829654634E-2,-7.604650408E-2,2.751708776E-2
3.971103854E0,-5.936181545E-2,-7.072018087E-2,2.538656071E-2
3.973108438E0,-5.403549224E-2,-7.817702740E-2,2.538656071E-2
3.975113021E0,-5.297023058E-2,-7.604650408E-2,2.538656071E-2
3.977117604E0,-5.616602302E-2,-8.030755073E-2,2.645182423E-2
3.979122188E0,-5.297023058E-2,-8.350334316E-2,2.645182423E-2
3.981126771E0,-5.723128468E-2,-8.243808150E-2,2.751708776E-2
3.983131354E0,-5.829654634E-2,-8.243808150E-2,2.964761667E-2
3.985135938E0,-5.829654634E-2,-8.137281984E-2,2.645182423E-2
3.987140521E0,-5.403549224E-2,-8.669913560E-2,2.645182423E-2
