"Time (s)","Acceleration x (m/s^2)","Acceleration y (m/s^2)","Acceleration z (m/s^2)"
0.000000000E0,3.581048489E0,6.592836380E0,6.025052071E0
2.002135000E-3,3.571466446E0,6.520972252E0,6.087334633E0
4.004792000E-3,3.600212336E0,6.501808167E0,6.130453587E0
6.008021000E-3,3.581048489E0,6.511390209E0,6.168780804E0
8.011406000E-3,3.585839272E0,6.544927120E0,6.202317715E0
1.001479200E-2,3.595421314E0,6.602418423E0,6.250227451E0
1.201885400E-2,3.633749008E0,6.621582031E0,6.264600277E0
1.402291700E-2,3.662494659E0,6.631164074E0,6.283763885E0
1.602765600E-2,3.700822353E0,6.602418423E0,6.298136711E0
1.803302100E-2,3.696031332E0,6.568881512E0,6.322091579E0
2.003895800E-2,3.748731852E0,6.506599426E0,6.384374142E0
2.204541700E-2,3.763104677E0,6.497017384E0,6.422701836E0
2.405229200E-2,3.791850567E0,6.444316864E0,6.437074661E0
2.605942700E-2,3.830178261E0,6.434734821E0,6.441865444E0
2.806671900E-2,3.825387239E0,6.434734821E0,6.441865444E0
3.007406200E-2,3.849342108E0,6.439525604E0,6.470611095E0
3.208140600E-2,3.882878780E0,6.453898907E0,6.470611095E0
3.408145800E-2,3.882878780E0,6.468271732E0,6.461029530E0
3.608151000E-2,3.902042627E0,6.482644558E0,6.437074661E0
3.808203100E-2,3.916415453E0,6.482644558E0,6.465820312E0
4.008312500E-2,3.935579300E0,6.473062515E0,6.489775181E0
4.208494800E-2,3.940370083E0,6.473062515E0,6.499357224E0
4.408755200E-2,3.921206236E0,6.429944038E0,6.499357224E0
4.609098900E-2,3.911624432E0,6.405989170E0,6.508938789E0
4.809526000E-2,3.902042627E0,6.372452259E0,6.518520832E0
5.010031200E-2,3.882878780E0,6.329333782E0,6.508938789E0
5.210609400E-2,3.834969044E0,6.300588131E0,6.518520832E0
5.411255200E-2,3.839760065E0,6.271842480E0,6.542475700E0
5.611958300E-2,3.801432371E0,6.252678394E0,6.552057743E0
5.812703100E-2,3.801432371E0,6.267051220E0,6.523311615E0
6.013479200E-2,3.811014414E0,6.267051220E0,6.518520832E0
6.214270800E-2,3.811014414E0,6.271842480E0,6.489775181E0
6.415062500E-2,3.787059546E0,6.281424046E0,6.480193138E0
6.615583300E-2,3.801432371E0,6.319751740E0,6.446656704E0
6.816031200E-2,3.811014414E0,6.338915825E0,6.446656704E0
7.016473900E-2,3.815805197E0,6.343706608E0,6.446656704E0
7.216916700E-2,3.811014414E0,6.334124565E0,6.451447487E0
7.417359400E-2,3.734359026E0,6.353288651E0,6.432283878E0
7.617802100E-2,3.696031332E0,6.386825085E0,6.432283878E0
7.818244800E-2,3.686449528E0,6.396407127E0,6.432283878E0
8.018687500E-2,3.715195179E0,6.372452259E0,6.432283878E0
8.219130200E-2,3.657703638E0,6.386825085E0,6.398746967E0
8.419572900E-2,3.643330812E0,6.420361996E0,6.389164925E0
8.620015600E-2,3.633749008E0,6.420361996E0,6.403537750E0
8.820458300E-2,3.638539791E0,6.415571213E0,6.393956184E0
9.020901000E-2,3.628957987E0,6.434734821E0,6.403537750E0
9.221343700E-2,3.619375944E0,6.463480473E0,6.417910576E0
9.421786400E-2,3.585839272E0,6.468271732E0,6.393956184E0
9.622229200E-2,3.585839272E0,6.492226601E0,6.403537750E0
9.822671900E-2,3.581048489E0,6.516180992E0,6.393956184E0
1.002311460E-1,3.571466446E0,6.501808167E0,6.398746967E0
1.022355730E-1,3.557093620E0,6.520972252E0,6.374792099E0
1.042400000E-1,3.552302599E0,6.511390209E0,6.393956184E0
1.062444270E-1,3.533138752E0,6.520972252E0,6.398746967E0
1.082488540E-1,3.542720795E0,6.516180992E0,6.398746967E0
1.102532810E-1,3.542720795E0,6.511390209E0,6.393956184E0
1.122577080E-1,3.528347969E0,6.530553818E0,6.393956184E0
1.142621350E-1,3.513974905E0,6.554508686E0,6.379583359E0
1.162665620E-1,3.504393101E0,6.559299946E0,6.370001316E0
1.182709890E-1,3.504393101E0,6.578463554E0,6.365210056E0
1.202754170E-1,3.509184122E0,6.607209206E0,6.355628490E0
1.222798440E-1,3.494811058E0,6.607209206E0,6.346046448E0
1.242842710E-1,3.509184122E0,6.640746117E0,6.336464405E0
1.262886980E-1,3.494811058E0,6.659909725E0,6.312509537E0
1.282931250E-1,3.494811058E0,6.688655376E0,6.317300797E0
1.302975520E-1,3.494811058E0,6.703028679E0,6.331673622E0
1.323019790E-1,3.504393101E0,6.693446636E0,6.317300797E0
1.343064060E-1,3.504393101E0,6.693446636E0,6.326882362E0
1.363108330E-1,3.504393101E0,6.693446636E0,6.360419273E0
1.383152600E-1,3.494811058E0,6.650328159E0,6.370001316E0
1.403196870E-1,3.499602079E0,6.621582031E0,6.413119793E0
1.423241140E-1,3.499602079E0,6.597627640E0,6.422701836E0
1.443285420E-1,3.509184122E0,6.607209206E0,6.422701836E0
1.463329690E-1,3.652912855E0,6.573672771E0,6.322091579E0
1.483373960E-1,3.633749008E0,6.516180992E0,6.302927971E0
1.503418230E-1,3.528347969E0,6.477853298E0,6.379583359E0
1.523462500E-1,3.494811058E0,6.444316864E0,6.461029530E0
1.543506770E-1,3.461274385E0,6.386825085E0,6.508938789E0
1.563551040E-1,3.432528734E0,6.377243519E0,6.508938789E0
1.583595310E-1,3.418155909E0,6.334124565E0,6.489775181E0
1.603639580E-1,3.403783083E0,6.324542999E0,6.484984398E0
1.623683850E-1,3.408573866E0,6.319751740E0,6.475402355E0
1.643728120E-1,3.413364887E0,6.319751740E0,6.451447487E0
1.663772390E-1,3.422946930E0,6.324542999E0,6.427492619E0
1.683816670E-1,3.422946930E0,6.324542999E0,6.413119793E0
1.703860940E-1,3.437319756E0,6.343706608E0,6.403537750E0
1.723905210E-1,3.432528734E0,6.353288651E0,6.417910576E0
1.743949480E-1,3.422946930E0,6.367661476E0,6.398746967E0
1.763993750E-1,3.413364887E0,6.382034302E0,6.370001316E0
1.784038020E-1,3.398992062E0,6.396407127E0,6.384374142E0
1.804082290E-1,3.389410019E0,6.420361996E0,6.379583359E0
1.824126560E-1,3.375037193E0,6.453898907E0,6.389164925E0
1.844170830E-1,3.375037193E0,6.477853298E0,6.384374142E0
1.864215100E-1,3.370246172E0,6.482644558E0,6.432283878E0
1.884259370E-1,3.360664368E0,6.506599426E0,6.432283878E0
1.904303640E-1,3.341500521E0,6.501808167E0,6.465820312E0
1.924347920E-1,3.341500521E0,6.516180992E0,6.465820312E0
1.944392190E-1,3.336709499E0,6.554508686E0,6.465820312E0
1.964436460E-1,3.327127695E0,6.544927120E0,6.489775181E0
1.984480730E-1,3.298382044E0,6.568881512E0,6.484984398E0
2.004525000E-1,3.298382044E0,6.592836380E0,6.499357224E0
2.024569270E-1,3.279218197E0,6.602418423E0,6.480193138E0
2.044613540E-1,3.288800001E0,6.626373291E0,6.484984398E0
2.064658330E-1,3.260054350E0,6.616791248E0,6.484984398E0
2.084703120E-1,3.274427176E0,6.640746117E0,6.484984398E0
2.104747920E-1,3.298382044E0,6.640746117E0,6.508938789E0
2.124792710E-1,3.303172827E0,6.635954857E0,6.489775181E0
2.144837500E-1,3.322336674E0,6.645536900E0,6.504148006E0
2.164882290E-1,3.322336674E0,6.640746117E0,6.494565964E0
2.184927080E-1,3.317545652E0,6.650328159E0,6.508938789E0
2.204971870E-1,3.331918716E0,6.640746117E0,6.518520832E0
2.225016670E-1,3.331918716E0,6.640746117E0,6.508938789E0
2.245061460E-1,3.336709499E0,6.631164074E0,6.494565964E0
2.265106250E-1,3.351082563E0,6.612000465E0,6.508938789E0
2.285151040E-1,3.322336674E0,6.621582031E0,6.499357224E0
2.305195830E-1,3.317545652E0,6.616791248E0,6.499357224E0
2.325240620E-1,3.293591022E0,6.602418423E0,6.504148006E0
2.345285420E-1,3.260054350E0,6.612000465E0,6.470611095E0
2.365330210E-1,3.197771788E0,6.669491768E0,6.446656704E0
2.385375000E-1,3.183398962E0,6.703028679E0,6.346046448E0
2.405419790E-1,3.307963848E0,6.602418423E0,6.298136711E0
2.425464580E-1,3.331918716E0,6.487435341E0,6.451447487E0
2.445509370E-1,3.317545652E0,6.382034302E0,6.599967003E0
2.465554170E-1,3.245681286E0,6.343706608E0,6.695786476E0
2.485598960E-1,3.226517677E0,6.358079433E0,6.724532127E0
2.505643750E-1,3.197771788E0,6.367661476E0,6.705368042E0
2.525688540E-1,3.173817158E0,6.396407127E0,6.657458782E0
2.545733330E-1,3.159444094E0,6.429944038E0,6.590385437E0
2.565778120E-1,3.145071268E0,6.473062515E0,6.508938789E0
2.585822920E-1,3.106743574E0,6.492226601E0,6.470611095E0
2.605867710E-1,3.106743574E0,6.501808167E0,6.480193138E0
2.625912500E-1,3.082788944E0,6.511390209E0,6.480193138E0
2.645957290E-1,3.073206902E0,6.525763035E0,6.494565964E0
2.666002080E-1,3.063625097E0,6.559299946E0,6.513730049E0
2.686046870E-1,3.058834076E0,6.549717903E0,6.518520832E0
2.706091670E-1,3.044461250E0,6.568881512E0,6.542475700E0
2.726136460E-1,3.030088425E0,6.597627640E0,6.532893658E0
2.746181250E-1,3.030088425E0,6.597627640E0,6.561639309E0
2.766226040E-1,3.006133556E0,6.631164074E0,6.547266483E0
2.786270830E-1,2.986969709E0,6.635954857E0,6.523311615E0
2.806315620E-1,2.967805862E0,6.626373291E0,6.508938789E0
2.826359890E-1,2.953433037E0,6.612000465E0,6.508938789E0
2.846404170E-1,2.953433037E0,6.626373291E0,6.513730049E0
2.866448440E-1,2.943850994E0,6.616791248E0,6.494565964E0
2.886492710E-1,2.939060211E0,6.616791248E0,6.504148006E0
2.906536980E-1,2.943850994E0,6.607209206E0,6.465820312E0
2.926581250E-1,2.939060211E0,6.621582031E0,6.465820312E0
2.946625520E-1,2.939060211E0,6.612000465E0,6.461029530E0
2.966669790E-1,2.943850994E0,6.616791248E0,6.446656704E0
2.986714060E-1,2.943850994E0,6.645536900E0,6.461029530E0
3.006758330E-1,2.953433037E0,6.664700985E0,6.480193138E0
3.026802600E-1,2.982178688E0,6.693446636E0,6.461029530E0
3.046846870E-1,3.025297403E0,6.717401505E0,6.446656704E0
3.066891140E-1,3.025297403E0,6.712610245E0,6.484984398E0
3.086935420E-1,3.030088425E0,6.707819462E0,6.518520832E0
3.106979690E-1,3.020506382E0,6.712610245E0,6.528102875E0
3.127023960E-1,3.025297403E0,6.712610245E0,6.523311615E0
3.147068230E-1,3.025297403E0,6.693446636E0,6.518520832E0
3.167112500E-1,3.010924578E0,6.707819462E0,6.532893658E0
3.187156770E-1,3.001342535E0,6.717401505E0,6.532893658E0
3.207201040E-1,3.001342535E0,6.707819462E0,6.571221352E0
3.227245310E-1,2.958224058E0,6.726983070E0,6.576012135E0
3.247289580E-1,2.876777649E0,6.822802544E0,6.580803394E0
3.267333850E-1,2.646811724E0,7.335434914E0,6.302927971E0
3.287378120E-1,2.939060211E0,7.043186665E0,6.264600277E0
3.307422390E-1,3.101952791E0,6.712610245E0,6.710159302E0
3.327466670E-1,3.068415880E0,6.520972252E0,6.873051643E0
3.347510940E-1,2.986969709E0,6.453898907E0,6.911379337E0
3.367555210E-1,2.905523539E0,6.473062515E0,6.944916248E0
3.387599480E-1,2.862404823E0,6.473062515E0,6.920961380E0
3.407643750E-1,2.804913282E0,6.492226601E0,6.844305992E0
3.427688020E-1,2.776167631E0,6.516180992E0,6.801187515E0
3.447732290E-1,2.790540457E0,6.530553818E0,6.801187515E0
3.467776560E-1,2.828868151E0,6.506599426E0,6.767650604E0
3.487820830E-1,2.819286108E0,6.482644558E0,6.777232647E0
3.507865100E-1,2.833659172E0,6.458689690E0,6.786814690E0
3.527909370E-1,2.862404823E0,6.425152779E0,6.805978298E0
3.547953640E-1,2.867195845E0,6.410779953E0,6.858678818E0
3.567997920E-1,2.881568670E0,6.405989170E0,6.858678818E0
3.588042190E-1,2.881568670E0,6.401198387E0,6.844305992E0
3.608086460E-1,2.867195845E0,6.420361996E0,6.839515209E0
3.628130730E-1,2.895941496E0,6.444316864E0,6.834723949E0
3.648175000E-1,2.881568670E0,6.468271732E0,6.825141907E0
3.668219270E-1,2.871986866E0,6.477853298E0,6.786814690E0
3.688263540E-1,2.871986866E0,6.473062515E0,6.762859821E0
3.708307810E-1,2.871986866E0,6.453898907E0,6.724532127E0
3.728352080E-1,2.848031998E0,6.458689690E0,6.714950085E0
3.748396350E-1,2.800122499E0,6.425152779E0,6.695786476E0
3.768440620E-1,2.776167631E0,6.429944038E0,6.652667522E0
3.788484890E-1,2.737839937E0,6.415571213E0,6.671831608E0
3.808529170E-1,2.723467112E0,6.420361996E0,6.647876740E0
3.828573440E-1,2.670766592E0,6.391616344E0,6.623921871E0
3.848617710E-1,2.637229919E0,6.429944038E0,6.619131088E0
3.868661980E-1,2.613275051E0,6.458689690E0,6.609549046E0
3.888706250E-1,2.579738379E0,6.463480473E0,6.585594177E0
3.908750520E-1,2.555783510E0,6.492226601E0,6.552057743E0
3.928794790E-1,2.541410685E0,6.477853298E0,6.532893658E0
3.948839060E-1,2.517455816E0,6.468271732E0,6.523311615E0
3.968883330E-1,2.488710165E0,6.453898907E0,6.494565964E0
3.988927600E-1,2.474337339E0,6.482644558E0,6.513730049E0
4.008971870E-1,2.455173492E0,6.482644558E0,6.508938789E0
4.029016140E-1,2.455173492E0,6.501808167E0,6.508938789E0
4.049060420E-1,2.431218624E0,6.520972252E0,6.508938789E0
4.069104690E-1,2.421636820E0,6.559299946E0,6.489775181E0
4.089148960E-1,2.436009645E0,6.573672771E0,6.461029530E0
4.109193230E-1,2.182088852E0,7.139005661E0,6.288555145E0
4.129237500E-1,2.426427841E0,6.980904102E0,6.154407978E0
4.149281770E-1,2.613275051E0,6.530553818E0,6.633503914E0
4.169326040E-1,2.637229919E0,6.286215305E0,6.925752163E0
4.189370310E-1,2.603693247E0,6.214350700E0,6.988034725E0
4.209415100E-1,2.517455816E0,6.223932743E0,6.940124989E0
4.229459890E-1,2.474337339E0,6.281424046E0,6.935334206E0
4.249504690E-1,2.522246838E0,6.257469654E0,6.920961380E0
4.269549480E-1,2.546201706E0,6.267051220E0,6.916170120E0
4.289594270E-1,2.574947357E0,6.286215305E0,6.887424469E0
4.309639060E-1,2.613275051E0,6.295797348E0,6.873051643E0
4.329683850E-1,2.637229919E0,6.310170174E0,6.868260860E0
4.349728640E-1,2.642020702E0,6.324542999E0,6.863469601E0
4.369773440E-1,2.665975571E0,6.334124565E0,6.858678818E0
4.389818230E-1,2.661184549E0,6.334124565E0,6.844305992E0
4.409863020E-1,2.670766592E0,6.324542999E0,6.863469601E0
4.429907810E-1,2.670766592E0,6.319751740E0,6.853888035E0
4.449952600E-1,2.670766592E0,6.319751740E0,6.853888035E0
4.469997390E-1,2.670766592E0,6.338915825E0,6.849096775E0
4.490042190E-1,2.680348396E0,6.324542999E0,6.815560341E0
4.510086980E-1,2.670766592E0,6.343706608E0,6.786814690E0
4.530131770E-1,2.646811724E0,6.372452259E0,6.767650604E0
4.550176560E-1,2.646811724E0,6.396407127E0,6.758068562E0
4.570221350E-1,2.646811724E0,6.410779953E0,6.753277779E0
4.590266140E-1,2.622857094E0,6.415571213E0,6.729322910E0
4.610310940E-1,2.642020702E0,6.453898907E0,6.719740868E0
4.630355730E-1,2.622857094E0,6.487435341E0,6.710159302E0
4.650400520E-1,2.622857094E0,6.506599426E0,6.671831608E0
4.670445310E-1,2.608484030E0,6.520972252E0,6.667040348E0
4.690490100E-1,2.598902225E0,6.535345078E0,6.667040348E0
4.710534890E-1,2.603693247E0,6.554508686E0,6.676622391E0
4.730579690E-1,2.550992727E0,6.588045597E0,6.647876740E0
4.750624480E-1,2.550992727E0,6.621582031E0,6.657458782E0
4.770669270E-1,2.536619663E0,6.645536900E0,6.662249565E0
4.790714060E-1,2.527037859E0,6.659909725E0,6.657458782E0
4.810758850E-1,2.527037859E0,6.655118942E0,6.671831608E0
4.830803640E-1,2.507874012E0,6.688655376E0,6.676622391E0
4.850848440E-1,2.479128361E0,6.659909725E0,6.690995216E0
4.870893230E-1,2.464755297E0,6.655118942E0,6.729322910E0
4.890938020E-1,2.426427841E0,6.640746117E0,6.762859821E0
4.910982810E-1,2.397681952E0,6.616791248E0,6.748486996E0
4.931027600E-1,2.383309126E0,6.592836380E0,6.753277779E0
4.951072390E-1,2.344981432E0,6.616791248E0,6.767650604E0
4.971116670E-1,2.325817585E0,6.592836380E0,6.738904953E0
4.991160940E-1,2.273117065E0,6.612000465E0,6.777232647E0
5.011205210E-1,2.277908087E0,6.626373291E0,6.767650604E0
5.031249480E-1,2.287489891E0,6.645536900E0,6.738904953E0
5.051293750E-1,2.287489891E0,6.640746117E0,6.743695736E0
5.071338020E-1,2.297071934E0,6.616791248E0,6.753277779E0
5.091382290E-1,2.301862955E0,6.578463554E0,6.758068562E0
5.111426560E-1,2.311444759E0,6.530553818E0,6.801187515E0
5.131470830E-1,2.316235781E0,6.501808167E0,6.810769081E0
5.151515100E-1,2.321026802E0,6.463480473E0,6.825141907E0
5.171559370E-1,2.335399628E0,6.439525604E0,6.877842426E0
5.191603640E-1,2.330608606E0,6.410779953E0,6.873051643E0
5.211647920E-1,2.344981432E0,6.401198387E0,6.882633686E0
5.231692190E-1,2.359354258E0,6.391616344E0,6.897006512E0
5.251736460E-1,2.364145279E0,6.391616344E0,6.882633686E0
5.271780730E-1,2.383309126E0,6.401198387E0,6.877842426E0
5.291825000E-1,2.407263994E0,6.396407127E0,6.897006512E0
5.311869270E-1,2.431218624E0,6.415571213E0,6.882633686E0
5.331913540E-1,2.431218624E0,6.434734821E0,6.863469601E0
5.351957810E-1,2.431218624E0,6.434734821E0,6.863469601E0
5.372002080E-1,2.450382471E0,6.458689690E0,6.849096775E0
5.392046350E-1,2.450382471E0,6.458689690E0,6.849096775E0
5.412090620E-1,2.450382471E0,6.473062515E0,6.825141907E0
5.432134890E-1,2.479128361E0,6.497017384E0,6.820351124E0
5.452179170E-1,2.512665033E0,6.497017384E0,6.829933167E0
5.472223440E-1,2.512665033E0,6.506599426E0,6.829933167E0
5.492267710E-1,2.512665033E0,6.497017384E0,6.834723949E0
5.512311980E-1,2.507874012E0,6.516180992E0,6.834723949E0
5.532356250E-1,2.522246838E0,6.516180992E0,6.829933167E0
5.552400520E-1,2.517455816E0,6.535345078E0,6.839515209E0
5.572444790E-1,2.507874012E0,6.520972252E0,6.829933167E0
5.592489060E-1,2.512665033E0,6.544927120E0,6.844305992E0
5.612533330E-1,2.498292208E0,6.559299946E0,6.825141907E0
5.632577600E-1,2.503082991E0,6.573672771E0,6.820351124E0
5.652621870E-1,2.498292208E0,6.578463554E0,6.829933167E0
5.672666140E-1,2.488710165E0,6.588045597E0,6.825141907E0
5.692710420E-1,2.503082991E0,6.607209206E0,6.834723949E0
5.712754690E-1,2.498292208E0,6.607209206E0,6.849096775E0
5.732798960E-1,2.531828880E0,6.607209206E0,6.853888035E0
5.752843230E-1,2.531828880E0,6.612000465E0,6.863469601E0
5.772887500E-1,2.527037859E0,6.583254337E0,6.882633686E0
5.792931770E-1,2.541410685E0,6.592836380E0,6.901797295E0
5.812976040E-1,2.546201706E0,6.578463554E0,6.901797295E0
5.833020310E-1,2.565365553E0,6.578463554E0,6.906588554E0
5.853064580E-1,2.555783510E0,6.578463554E0,6.901797295E0
5.873108850E-1,2.570156336E0,6.578463554E0,6.897006512E0
5.893153120E-1,2.579738379E0,6.568881512E0,6.892215729E0
5.913197390E-1,2.570156336E0,6.568881512E0,6.868260860E0
5.933241670E-1,2.594111204E0,6.549717903E0,6.868260860E0
5.953285940E-1,2.603693247E0,6.564090729E0,6.853888035E0
5.973330210E-1,2.646811724E0,6.540135860E0,6.877842426E0
5.993374480E-1,2.651602745E0,6.516180992E0,6.868260860E0
6.013418750E-1,2.651602745E0,6.511390209E0,6.868260860E0
6.033463020E-1,2.651602745E0,6.516180992E0,6.863469601E0
6.053507290E-1,2.656393766E0,6.511390209E0,6.868260860E0
6.073551560E-1,2.637229919E0,6.487435341E0,6.877842426E0
6.093595830E-1,2.642020702E0,6.492226601E0,6.877842426E0
6.113640100E-1,2.642020702E0,6.487435341E0,6.892215729E0
6.133684370E-1,2.642020702E0,6.482644558E0,6.892215729E0
6.153728640E-1,2.632438898E0,6.492226601E0,6.897006512E0
6.173772920E-1,2.646811724E0,6.487435341E0,6.906588554E0
6.193817190E-1,2.646811724E0,6.506599426E0,6.906588554E0
6.213861460E-1,2.661184549E0,6.492226601E0,6.906588554E0
6.233905730E-1,2.637229919E0,6.482644558E0,6.897006512E0
6.253950000E-1,2.651602745E0,6.492226601E0,6.916170120E0
6.273994270E-1,2.651602745E0,6.511390209E0,6.901797295E0
6.294038540E-1,2.637229919E0,6.511390209E0,6.892215729E0
6.314082810E-1,2.632438898E0,6.544927120E0,6.853888035E0
6.334127080E-1,2.642020702E0,6.549717903E0,6.853888035E0
6.354171350E-1,2.637229919E0,6.573672771E0,6.853888035E0
6.374215620E-1,2.622857094E0,6.573672771E0,6.839515209E0
6.394260420E-1,2.613275051E0,6.597627640E0,6.825141907E0
6.414305210E-1,2.618066072E0,6.616791248E0,6.820351124E0
6.434350000E-1,2.618066072E0,6.621582031E0,6.801187515E0
6.454394790E-1,2.598902225E0,6.640746117E0,6.805978298E0
6.474439580E-1,2.570156336E0,6.655118942E0,6.805978298E0
6.494484370E-1,2.560574532E0,6.664700985E0,6.805978298E0
6.514552600E-1,2.541410685E0,6.679073811E0,6.829933167E0
6.534583850E-1,2.555783510E0,6.679073811E0,6.849096775E0
6.554615620E-1,2.531828880E0,6.703028679E0,6.844305992E0
6.574647920E-1,2.531828880E0,6.688655376E0,6.858678818E0
6.594681250E-1,2.512665033E0,6.683864594E0,6.873051643E0
6.614716140E-1,2.483919144E0,6.683864594E0,6.858678818E0
6.634753120E-1,2.469546318E0,6.679073811E0,6.863469601E0
6.654792190E-1,2.464755297E0,6.659909725E0,6.863469601E0
6.674833330E-1,2.455173492E0,6.655118942E0,6.868260860E0
6.694877080E-1,2.445591688E0,6.635954857E0,6.858678818E0
6.714922920E-1,2.455173492E0,6.621582031E0,6.868260860E0
6.734970830E-1,2.440800667E0,6.631164074E0,6.863469601E0
6.755020830E-1,2.459964514E0,6.626373291E0,6.858678818E0
6.775072390E-1,2.459964514E0,6.626373291E0,6.868260860E0
6.795125000E-1,2.469546318E0,6.612000465E0,6.849096775E0
6.815178640E-1,2.464755297E0,6.602418423E0,6.863469601E0
6.835232810E-1,2.493501186E0,6.588045597E0,6.873051643E0
6.855286980E-1,2.483919144E0,6.612000465E0,6.844305992E0
6.875339580E-1,2.459964514E0,6.612000465E0,6.810769081E0
6.895383850E-1,2.459964514E0,6.616791248E0,6.801187515E0
6.915428120E-1,2.459964514E0,6.588045597E0,6.796396255E0
6.935472390E-1,2.469546318E0,6.559299946E0,6.801187515E0
6.955516670E-1,2.474337339E0,6.549717903E0,6.791605473E0
6.975560940E-1,2.488710165E0,6.535345078E0,6.801187515E0
6.995605210E-1,2.512665033E0,6.530553818E0,6.801187515E0
7.015649480E-1,2.527037859E0,6.516180992E0,6.791605473E0
7.035693750E-1,2.517455816E0,6.511390209E0,6.825141907E0
7.055738020E-1,2.536619663E0,6.530553818E0,6.810769081E0
7.075782290E-1,2.536619663E0,6.525763035E0,6.805978298E0
7.095826560E-1,2.541410685E0,6.535345078E0,6.810769081E0
7.115870830E-1,2.541410685E0,6.535345078E0,6.805978298E0
7.135915100E-1,2.550992727E0,6.540135860E0,6.815560341E0
7.155959370E-1,2.522246838E0,6.520972252E0,6.825141907E0
7.176003640E-1,2.527037859E0,6.516180992E0,6.820351124E0
7.196047920E-1,2.531828880E0,6.501808167E0,6.829933167E0
7.216092190E-1,2.512665033E0,6.497017384E0,6.810769081E0
7.236136460E-1,2.493501186E0,6.535345078E0,6.777232647E0
7.256180730E-1,2.483919144E0,6.535345078E0,6.748486996E0
7.276225000E-1,2.474337339E0,6.540135860E0,6.734114170E0
7.296269270E-1,2.503082991E0,6.506599426E0,6.724532127E0
7.316313540E-1,2.483919144E0,6.506599426E0,6.724532127E0
7.336357810E-1,2.503082991E0,6.511390209E0,6.719740868E0
7.356402080E-1,2.522246838E0,6.511390209E0,6.710159302E0
7.376446350E-1,2.536619663E0,6.492226601E0,6.695786476E0
7.396490620E-1,2.536619663E0,6.497017384E0,6.705368042E0
7.416534890E-1,2.531828880E0,6.511390209E0,6.729322910E0
7.436579170E-1,2.555783510E0,6.501808167E0,6.705368042E0
7.456623440E-1,2.570156336E0,6.492226601E0,6.753277779E0
7.476667710E-1,2.579738379E0,6.487435341E0,6.753277779E0
7.496711980E-1,2.579738379E0,6.473062515E0,6.772441387E0
7.516756250E-1,2.570156336E0,6.463480473E0,6.753277779E0
7.536800520E-1,2.565365553E0,6.439525604E0,6.772441387E0
7.556844790E-1,2.560574532E0,6.439525604E0,6.758068562E0
7.576889060E-1,2.565365553E0,6.425152779E0,6.743695736E0
7.596933330E-1,2.594111204E0,6.429944038E0,6.753277779E0
7.616977600E-1,2.579738379E0,6.420361996E0,6.748486996E0
7.637021870E-1,2.594111204E0,6.405989170E0,6.743695736E0
7.657066140E-1,2.598902225E0,6.420361996E0,6.762859821E0
7.677110420E-1,2.608484030E0,6.410779953E0,6.748486996E0
7.697154690E-1,2.608484030E0,6.434734821E0,6.743695736E0
7.717198960E-1,2.618066072E0,6.425152779E0,6.753277779E0
7.737243230E-1,2.642020702E0,6.439525604E0,6.758068562E0
7.757287500E-1,2.651602745E0,6.473062515E0,6.748486996E0
7.777331770E-1,2.651602745E0,6.477853298E0,6.743695736E0
7.797376040E-1,2.642020702E0,6.516180992E0,6.738904953E0
7.817420310E-1,2.646811724E0,6.525763035E0,6.734114170E0
7.837464580E-1,2.656393766E0,6.530553818E0,6.743695736E0
7.857508850E-1,2.675557613E0,6.568881512E0,6.767650604E0
7.877553120E-1,2.646811724E0,6.573672771E0,6.734114170E0
7.897597390E-1,2.665975571E0,6.597627640E0,6.753277779E0
7.917641670E-1,2.661184549E0,6.597627640E0,6.753277779E0
7.937685940E-1,2.646811724E0,6.612000465E0,6.734114170E0
7.957730210E-1,2.632438898E0,6.597627640E0,6.734114170E0
7.977774480E-1,2.632438898E0,6.592836380E0,6.767650604E0
7.997818750E-1,2.632438898E0,6.583254337E0,6.758068562E0
8.017863020E-1,2.613275051E0,6.564090729E0,6.734114170E0
8.037907290E-1,2.618066072E0,6.588045597E0,6.705368042E0
8.057951560E-1,2.627647877E0,6.612000465E0,6.710159302E0
8.077995830E-1,2.618066072E0,6.588045597E0,6.690995216E0
8.098040100E-1,2.627647877E0,6.592836380E0,6.686204433E0
8.118084370E-1,2.618066072E0,6.573672771E0,6.690995216E0
8.138128640E-1,2.608484030E0,6.549717903E0,6.719740868E0
8.158172920E-1,2.622857094E0,6.544927120E0,6.719740868E0
8.178217190E-1,2.622857094E0,6.516180992E0,6.710159302E0
8.198261460E-1,2.608484030E0,6.482644558E0,6.710159302E0
8.218305730E-1,2.613275051E0,6.458689690E0,6.738904953E0
8.238350000E-1,2.594111204E0,6.449107647E0,6.743695736E0
8.258394270E-1,2.603693247E0,6.444316864E0,6.777232647E0
8.278438540E-1,2.613275051E0,6.444316864E0,6.791605473E0
8.298483330E-1,2.618066072E0,6.410779953E0,6.796396255E0
8.318528120E-1,2.613275051E0,6.410779953E0,6.772441387E0
8.338572920E-1,2.608484030E0,6.405989170E0,6.791605473E0
8.358617710E-1,2.622857094E0,6.386825085E0,6.772441387E0
8.378662500E-1,2.627647877E0,6.396407127E0,6.767650604E0
8.398707290E-1,2.632438898E0,6.401198387E0,6.758068562E0
8.418752080E-1,2.632438898E0,6.410779953E0,6.738904953E0
8.438796870E-1,2.646811724E0,6.405989170E0,6.738904953E0
8.458841670E-1,2.642020702E0,6.415571213E0,6.738904953E0
8.478886460E-1,2.651602745E0,6.439525604E0,6.710159302E0
8.498931250E-1,2.651602745E0,6.439525604E0,6.714950085E0
8.518976040E-1,2.646811724E0,6.468271732E0,6.714950085E0
8.539020830E-1,2.627647877E0,6.473062515E0,6.743695736E0
8.559065620E-1,2.646811724E0,6.487435341E0,6.710159302E0
8.579110420E-1,2.627647877E0,6.492226601E0,6.686204433E0
8.599155210E-1,2.642020702E0,6.511390209E0,6.695786476E0
8.619200000E-1,2.637229919E0,6.506599426E0,6.690995216E0
8.639244790E-1,2.642020702E0,6.530553818E0,6.705368042E0
8.659289580E-1,2.637229919E0,6.511390209E0,6.714950085E0
8.679334370E-1,2.651602745E0,6.520972252E0,6.705368042E0
8.699379170E-1,2.651602745E0,6.520972252E0,6.710159302E0
8.719423960E-1,2.656393766E0,6.520972252E0,6.719740868E0
8.739468750E-1,2.656393766E0,6.516180992E0,6.705368042E0
8.759513540E-1,2.675557613E0,6.535345078E0,6.729322910E0
8.779558330E-1,2.704303265E0,6.544927120E0,6.729322910E0
8.799603120E-1,2.704303265E0,6.549717903E0,6.724532127E0
8.819647920E-1,2.723467112E0,6.535345078E0,6.700577259E0
8.839692710E-1,2.733048916E0,6.525763035E0,6.710159302E0
8.859737500E-1,2.728258133E0,6.525763035E0,6.695786476E0
8.879782290E-1,2.723467112E0,6.540135860E0,6.671831608E0
8.899827080E-1,2.709094286E0,6.554508686E0,6.633503914E0
8.919871870E-1,2.718676090E0,6.564090729E0,6.619131088E0
8.939916670E-1,2.718676090E0,6.564090729E0,6.604758263E0
8.959961460E-1,2.709094286E0,6.549717903E0,6.614339828E0
8.980006250E-1,2.713885069E0,6.530553818E0,6.595176220E0
9.000051040E-1,2.709094286E0,6.530553818E0,6.638294697E0
9.020095830E-1,2.694721222E0,6.535345078E0,6.623921871E0
9.040140100E-1,2.694721222E0,6.520972252E0,6.609549046E0
9.060184370E-1,2.680348396E0,6.501808167E0,6.657458782E0
9.080228640E-1,2.675557613E0,6.497017384E0,6.657458782E0
9.100272920E-1,2.661184549E0,6.501808167E0,6.671831608E0
9.120317190E-1,2.651602745E0,6.506599426E0,6.662249565E0
9.140361460E-1,2.651602745E0,6.511390209E0,6.662249565E0
9.160405730E-1,2.627647877E0,6.497017384E0,6.676622391E0
9.180450000E-1,2.622857094E0,6.497017384E0,6.690995216E0
9.200494270E-1,2.608484030E0,6.477853298E0,6.695786476E0
9.220538540E-1,2.618066072E0,6.497017384E0,6.676622391E0
9.240582810E-1,2.589320183E0,6.492226601E0,6.690995216E0
9.260627080E-1,2.574947357E0,6.511390209E0,6.671831608E0
9.280671350E-1,2.560574532E0,6.506599426E0,6.671831608E0
9.300715620E-1,2.574947357E0,6.516180992E0,6.667040348E0
9.320759890E-1,2.579738379E0,6.506599426E0,6.681413651E0
9.340804170E-1,2.579738379E0,6.516180992E0,6.705368042E0
9.360848440E-1,2.584529400E0,6.501808167E0,6.705368042E0
9.380892710E-1,2.579738379E0,6.492226601E0,6.705368042E0
9.400936980E-1,2.584529400E0,6.497017384E0,6.705368042E0
9.420981250E-1,2.570156336E0,6.516180992E0,6.695786476E0
9.441025520E-1,2.584529400E0,6.501808167E0,6.695786476E0
9.461069790E-1,2.589320183E0,6.516180992E0,6.695786476E0
9.481114060E-1,2.589320183E0,6.520972252E0,6.671831608E0
9.501158330E-1,2.594111204E0,6.511390209E0,6.676622391E0
9.521202600E-1,2.608484030E0,6.525763035E0,6.652667522E0
9.541246870E-1,2.598902225E0,6.530553818E0,6.657458782E0
9.561291140E-1,2.608484030E0,6.525763035E0,6.671831608E0
9.581335420E-1,2.627647877E0,6.525763035E0,6.662249565E0
9.601379690E-1,2.603693247E0,6.520972252E0,6.657458782E0
9.621423960E-1,2.622857094E0,6.535345078E0,6.667040348E0
9.641468230E-1,2.594111204E0,6.501808167E0,6.667040348E0
9.661512500E-1,2.603693247E0,6.530553818E0,6.647876740E0
9.681556770E-1,2.598902225E0,6.506599426E0,6.652667522E0
9.701601040E-1,2.565365553E0,6.458689690E0,6.647876740E0
9.721645310E-1,2.565365553E0,6.477853298E0,6.662249565E0
9.741689580E-1,2.574947357E0,6.468271732E0,6.662249565E0
9.761733850E-1,2.574947357E0,6.453898907E0,6.695786476E0
9.781778120E-1,2.579738379E0,6.453898907E0,6.681413651E0
9.801822390E-1,2.584529400E0,6.420361996E0,6.681413651E0
9.821866670E-1,2.603693247E0,6.410779953E0,6.695786476E0
9.841910940E-1,2.627647877E0,6.415571213E0,6.695786476E0
9.861955210E-1,2.637229919E0,6.425152779E0,6.695786476E0
9.881999480E-1,2.627647877E0,6.434734821E0,6.695786476E0
9.902043750E-1,2.651602745E0,6.434734821E0,6.710159302E0
9.922088020E-1,2.656393766E0,6.453898907E0,6.705368042E0
9.942132290E-1,2.675557613E0,6.453898907E0,6.705368042E0
9.962176560E-1,2.680348396E0,6.458689690E0,6.695786476E0
9.982220830E-1,2.699512243E0,6.477853298E0,6.724532127E0
1.000226510E0,2.704303265E0,6.482644558E0,6.686204433E0
1.002230937E0,2.718676090E0,6.497017384E0,6.686204433E0
1.004235364E0,2.723467112E0,6.511390209E0,6.671831608E0
1.006239792E0,2.728258133E0,6.520972252E0,6.667040348E0
1.008244219E0,2.737839937E0,6.516180992E0,6.667040348E0
1.010248646E0,2.752212763E0,6.501808167E0,6.657458782E0
1.012253073E0,2.723467112E0,6.516180992E0,6.647876740E0
1.014257500E0,2.733048916E0,6.530553818E0,6.643085957E0
1.016261927E0,2.747421980E0,6.530553818E0,6.619131088E0
1.018266354E0,2.757003784E0,6.516180992E0,6.614339828E0
1.020270781E0,2.757003784E0,6.549717903E0,6.619131088E0
1.022275208E0,2.757003784E0,6.554508686E0,6.604758263E0
1.024279635E0,2.752212763E0,6.559299946E0,6.614339828E0
1.026284062E0,2.776167631E0,6.549717903E0,6.604758263E0
1.028288489E0,2.752212763E0,6.559299946E0,6.590385437E0
1.030292917E0,2.761794806E0,6.554508686E0,6.590385437E0
1.032297344E0,2.766585588E0,6.578463554E0,6.571221352E0
1.034301771E0,2.757003784E0,6.549717903E0,6.547266483E0
1.036306198E0,2.757003784E0,6.559299946E0,6.552057743E0
1.038310625E0,2.757003784E0,6.535345078E0,6.532893658E0
1.040315052E0,2.766585588E0,6.530553818E0,6.547266483E0
1.042319479E0,2.771376610E0,6.525763035E0,6.552057743E0
1.044323906E0,2.785749435E0,6.520972252E0,6.552057743E0
1.046328385E0,2.804913282E0,6.492226601E0,6.566430569E0
1.048332864E0,2.824077129E0,6.477853298E0,6.580803394E0
1.050337344E0,2.809704304E0,6.458689690E0,6.566430569E0
1.052341823E0,2.833659172E0,6.434734821E0,6.556848526E0
1.054346302E0,2.809704304E0,6.453898907E0,6.576012135E0
1.056350781E0,2.828868151E0,6.492226601E0,6.566430569E0
1.058355260E0,2.838449955E0,6.501808167E0,6.523311615E0
1.060359739E0,2.824077129E0,6.525763035E0,6.518520832E0
1.062364219E0,2.843240976E0,6.564090729E0,6.513730049E0
1.064368698E0,2.848031998E0,6.568881512E0,6.513730049E0
1.066373177E0,2.871986866E0,6.549717903E0,6.513730049E0
1.068377656E0,2.857613802E0,6.583254337E0,6.542475700E0
1.070382135E0,2.876777649E0,6.607209206E0,6.580803394E0
1.072386614E0,2.881568670E0,6.612000465E0,6.609549046E0
1.074391094E0,2.881568670E0,6.616791248E0,6.623921871E0
1.076395573E0,2.915105343E0,6.626373291E0,6.671831608E0
1.078400052E0,2.929478168E0,6.626373291E0,6.681413651E0
1.080404531E0,2.943850994E0,6.659909725E0,6.690995216E0
1.082409010E0,2.963014841E0,6.679073811E0,6.676622391E0
1.084413489E0,2.972596884E0,6.707819462E0,6.686204433E0
1.086417969E0,2.986969709E0,6.736565113E0,6.667040348E0
1.088422448E0,3.006133556E0,6.722192287E0,6.676622391E0
1.090426927E0,2.986969709E0,6.731774330E0,6.657458782E0
1.092431406E0,3.006133556E0,6.741356373E0,6.623921871E0
1.094435885E0,3.020506382E0,6.750937939E0,6.595176220E0
1.096440364E0,3.039670229E0,6.750937939E0,6.576012135E0
1.098444844E0,3.034879208E0,6.760519981E0,6.528102875E0
1.100449323E0,3.063625097E0,6.774892807E0,6.504148006E0
1.102453802E0,3.082788944E0,6.798847675E0,6.484984398E0
1.104458281E0,3.101952791E0,6.822802544E0,6.461029530E0
1.106462760E0,3.130698442E0,6.813220501E0,6.422701836E0
1.108467239E0,3.149862289E0,6.822802544E0,6.432283878E0
1.110471719E0,3.188189983E0,6.837175369E0,6.441865444E0
1.112476198E0,3.216935635E0,6.808429718E0,6.432283878E0
1.114480677E0,3.231308460E0,6.798847675E0,6.451447487E0
1.116485156E0,3.221726656E0,6.794056892E0,6.461029530E0
1.118489635E0,3.250472307E0,6.789265633E0,6.437074661E0
1.120494062E0,3.260054350E0,6.774892807E0,6.441865444E0
1.122498489E0,3.274427176E0,6.770102024E0,6.465820312E0
1.124502917E0,3.260054350E0,6.760519981E0,6.484984398E0
1.126507344E0,3.240890503E0,6.770102024E0,6.494565964E0
1.128511771E0,3.240890503E0,6.731774330E0,6.484984398E0
1.130516198E0,3.231308460E0,6.746147156E0,6.494565964E0
1.132520625E0,3.216935635E0,6.755729198E0,6.508938789E0
1.134525052E0,3.202562809E0,6.760519981E0,6.523311615E0
1.136529479E0,3.183398962E0,6.774892807E0,6.513730049E0
1.138533906E0,3.169026136E0,6.750937939E0,6.504148006E0
1.140538333E0,3.159444094E0,6.746147156E0,6.499357224E0
1.142542760E0,3.125907421E0,6.755729198E0,6.489775181E0
1.144547187E0,3.092370749E0,6.779683590E0,6.494565964E0
1.146551614E0,3.082788944E0,6.779683590E0,6.484984398E0
1.148556042E0,3.039670229E0,6.779683590E0,6.446656704E0
1.150560469E0,3.020506382E0,6.803638458E0,6.437074661E0
1.152564896E0,2.991760731E0,6.827593327E0,6.403537750E0
1.154569323E0,2.967805862E0,6.841966152E0,6.370001316E0
1.156573750E0,2.948642015E0,6.841966152E0,6.346046448E0
1.158578177E0,2.924687386E0,6.875503063E0,6.346046448E0
1.160582604E0,2.905523539E0,6.851548195E0,6.322091579E0
1.162587031E0,2.895941496E0,6.875503063E0,6.331673622E0
1.164591458E0,2.886359692E0,6.885084629E0,6.317300797E0
1.166595885E0,2.848031998E0,6.894666672E0,6.293345928E0
1.168600312E0,2.862404823E0,6.904248714E0,6.307718754E0
1.170604739E0,2.862404823E0,6.889875889E0,6.259809017E0
1.172609167E0,2.881568670E0,6.889875889E0,6.302927971E0
1.174613594E0,2.881568670E0,6.861130238E0,6.283763885E0
1.176618021E0,2.915105343E0,6.846757412E0,6.302927971E0
1.178622448E0,2.900732517E0,6.870711803E0,6.322091579E0
1.180626875E0,2.924687386E0,6.846757412E0,6.341255665E0
1.182631302E0,2.919896364E0,6.851548195E0,6.317300797E0
1.184635729E0,2.924687386E0,6.861130238E0,6.346046448E0
1.186640156E0,2.929478168E0,6.832384109E0,6.307718754E0
1.188644583E0,2.929478168E0,6.827593327E0,6.322091579E0
1.190649010E0,2.929478168E0,6.789265633E0,6.283763885E0
1.192653437E0,2.943850994E0,6.765310764E0,6.312509537E0
1.194657864E0,2.939060211E0,6.746147156E0,6.274181843E0
1.196662292E0,2.967805862E0,6.703028679E0,6.269391060E0
1.198666719E0,2.963014841E0,6.683864594E0,6.302927971E0
1.200671146E0,2.977387905E0,6.669491768E0,6.293345928E0
1.202675573E0,2.958224058E0,6.679073811E0,6.298136711E0
1.204680000E0,2.977387905E0,6.707819462E0,6.336464405E0
1.206684427E0,2.986969709E0,6.693446636E0,6.326882362E0
1.208688854E0,2.996551752E0,6.717401505E0,6.312509537E0
1.210693281E0,2.991760731E0,6.731774330E0,6.360419273E0
1.212697708E0,2.986969709E0,6.707819462E0,6.370001316E0
1.214702135E0,2.991760731E0,6.722192287E0,6.370001316E0
1.216706562E0,3.015715361E0,6.707819462E0,6.403537750E0
1.218710989E0,3.025297403E0,6.703028679E0,6.413119793E0
1.220715417E0,3.063625097E0,6.688655376E0,6.432283878E0
1.222719844E0,3.063625097E0,6.674282551E0,6.470611095E0
1.224724271E0,3.068415880E0,6.674282551E0,6.470611095E0
1.226728698E0,3.087579727E0,6.683864594E0,6.508938789E0
1.228733125E0,3.082788944E0,6.746147156E0,6.523311615E0
1.230737552E0,3.073206902E0,6.760519981E0,6.532893658E0
1.232741979E0,3.058834076E0,6.789265633E0,6.561639309E0
1.234746406E0,3.044461250E0,6.808429718E0,6.561639309E0
1.236750833E0,3.025297403E0,6.841966152E0,6.518520832E0
1.238755260E0,3.020506382E0,6.803638458E0,6.494565964E0
1.240759687E0,3.020506382E0,6.794056892E0,6.470611095E0
1.242764114E0,2.939060211E0,6.841966152E0,6.451447487E0
1.244768542E0,2.967805862E0,6.832384109E0,6.427492619E0
1.246772969E0,2.977387905E0,6.741356373E0,6.432283878E0
1.248777396E0,3.015715361E0,6.626373291E0,6.422701836E0
1.250781823E0,3.020506382E0,6.588045597E0,6.422701836E0
1.252786250E0,3.039670229E0,6.568881512E0,6.422701836E0
1.254790677E0,3.006133556E0,6.626373291E0,6.441865444E0
1.256795104E0,3.034879208E0,6.597627640E0,6.312509537E0
1.258799531E0,3.087579727E0,6.549717903E0,6.283763885E0
1.260804010E0,3.097161770E0,6.635954857E0,6.302927971E0
1.262808489E0,3.111534595E0,6.674282551E0,6.221481323E0
1.264812969E0,3.221726656E0,6.592836380E0,6.231063366E0
1.266817448E0,3.221726656E0,6.635954857E0,6.259809017E0
1.268821927E0,3.245681286E0,6.707819462E0,6.288555145E0
1.270826406E0,3.264845133E0,6.750937939E0,6.288555145E0
1.272830885E0,3.307963848E0,6.798847675E0,6.283763885E0
1.274835364E0,3.327127695E0,6.832384109E0,6.298136711E0
1.276839844E0,3.336709499E0,6.851548195E0,6.312509537E0
1.278844323E0,3.403783083E0,6.808429718E0,6.274181843E0
1.280848802E0,3.461274385E0,6.774892807E0,6.274181843E0
1.282853281E0,3.466065407E0,6.827593327E0,6.269391060E0
1.284857760E0,3.494811058E0,6.813220501E0,6.235854626E0
1.286862239E0,3.533138752E0,6.856338978E0,6.226272583E0
1.288866719E0,3.533138752E0,6.875503063E0,6.202317715E0
1.290871198E0,3.571466446E0,6.846757412E0,6.192735672E0
1.292875677E0,3.547511816E0,6.904248714E0,6.168780804E0
1.294880156E0,3.561884642E0,6.918621540E0,6.163990021E0
1.296884635E0,3.557093620E0,6.995276928E0,6.173572063E0
1.298889114E0,3.533138752E0,7.014440536E0,6.130453587E0
1.300893594E0,3.638539791E0,6.923412323E0,6.144826412E0
1.302898073E0,3.643330812E0,6.894666672E0,6.106498718E0
1.304902552E0,3.681658506E0,6.904248714E0,6.116080284E0
1.306907031E0,3.657703638E0,6.961740017E0,6.106498718E0
1.308911510E0,3.585839272E0,7.134214401E0,6.063379765E0
1.310915989E0,3.609794140E0,7.206079006E0,6.044216156E0
1.312920469E0,3.619375944E0,7.225242615E0,6.082543850E0
1.314924948E0,3.662494659E0,7.182124138E0,6.087334633E0
1.316929427E0,3.667285681E0,7.177333355E0,6.106498718E0
1.318933906E0,3.628957987E0,7.244406700E0,6.116080284E0
1.320938385E0,3.628957987E0,7.268361568E0,6.053798199E0
1.322942864E0,3.652912855E0,7.230033875E0,6.005888462E0
1.324947344E0,3.686449528E0,7.182124138E0,6.034634113E0
1.326951823E0,3.758313894E0,7.081513882E0,6.010679245E0
1.328956302E0,3.719986200E0,7.119841576E0,6.049006939E0
1.330960781E0,3.691240311E0,7.119841576E0,6.068171024E0
1.332965260E0,3.667285681E0,7.158169270E0,6.092125893E0
1.334969687E0,3.657703638E0,7.177333355E0,6.106498718E0
1.336974114E0,3.657703638E0,7.148587704E0,6.106498718E0
1.338978542E0,3.662494659E0,7.143796444E0,6.087334633E0
1.340982969E0,3.657703638E0,7.086305141E0,6.077752590E0
1.342987396E0,3.609794140E0,7.076723099E0,6.058588982E0
1.344991823E0,3.676867485E0,6.961740017E0,6.068171024E0
1.346996250E0,3.643330812E0,6.985694885E0,6.058588982E0
1.349000677E0,3.571466446E0,7.067141056E0,6.053798199E0
1.351005104E0,3.585839272E0,6.980904102E0,6.029843330E0
1.353009531E0,3.552302599E0,6.947367191E0,6.001097679E0
1.355013958E0,3.561884642E0,6.918621540E0,5.967560768E0
1.357018385E0,3.547511816E0,6.851548195E0,5.934024334E0
1.359022812E0,3.547511816E0,6.841966152E0,5.934024334E0
1.361027239E0,3.571466446E0,6.818011284E0,5.948397160E0
1.363031667E0,3.581048489E0,6.794056892E0,5.986724854E0
1.365036094E0,3.581048489E0,6.846757412E0,5.967560768E0
1.367040521E0,3.600212336E0,6.822802544E0,5.981933594E0
1.369044948E0,3.652912855E0,6.755729198E0,6.029843330E0
1.371045729E0,3.614585161E0,6.803638458E0,5.996306419E0
1.373046510E0,3.605003119E0,6.841966152E0,5.977142811E0
1.375047708E0,3.628957987E0,6.894666672E0,5.948397160E0
1.377049427E0,3.667285681E0,6.832384109E0,5.981933594E0
1.379051771E0,3.705613375E0,6.813220501E0,5.962769985E0
1.381054792E0,3.719986200E0,6.794056892E0,5.919651031E0
1.383058542E0,3.700822353E0,6.837175369E0,5.862159729E0
1.385063021E0,3.758313894E0,6.837175369E0,5.866950512E0
1.387068177E0,3.791850567E0,6.822802544E0,5.981933594E0
1.389073958E0,3.811014414E0,6.808429718E0,6.005888462E0
1.391080312E0,3.801432371E0,6.846757412E0,5.977142811E0
1.393087135E0,3.806223392E0,6.875503063E0,5.967560768E0
1.395094323E0,3.811014414E0,6.880293846E0,5.943605900E0
1.397101719E0,3.849342108E0,6.889875889E0,5.948397160E0
1.399109219E0,3.839760065E0,6.937785149E0,5.948397160E0
1.401116406E0,3.858923912E0,6.913830757E0,5.895696640E0
1.403120833E0,3.916415453E0,6.889875889E0,5.876532555E0
1.405125260E0,3.863714933E0,6.961740017E0,5.881323814E0
1.407129687E0,3.849342108E0,7.052768230E0,5.857368946E0
1.409134114E0,3.858923912E0,7.076723099E0,5.838204861E0
1.411138542E0,3.887669563E0,7.028813362E0,5.890905380E0
1.413142969E0,3.839760065E0,7.115050793E0,5.847786903E0
1.415147396E0,3.921206236E0,7.014440536E0,5.823832035E0
1.417151823E0,3.897251606E0,7.019231796E0,5.823832035E0
1.419156250E0,3.935579300E0,7.014440536E0,5.842996120E0
1.421160677E0,3.988279819E0,7.014440536E0,5.943605900E0
1.423165104E0,3.983488798E0,7.110260010E0,5.948397160E0
1.425169531E0,4.055353165E0,7.095887184E0,5.986724854E0
1.427173958E0,4.093680859E0,7.076723099E0,5.986724854E0
1.429178385E0,4.170336246E0,7.028813362E0,6.029843330E0
1.431182812E0,4.141590595E0,7.057559490E0,6.005888462E0
1.433187239E0,4.074516773E0,7.091095924E0,5.924442291E0
1.435191667E0,4.045771122E0,7.081513882E0,5.780713558E0
1.437196094E0,4.093680859E0,7.024022579E0,5.881323814E0
1.439200521E0,4.213454723E0,7.024022579E0,6.130453587E0
1.441204948E0,4.218245506E0,6.976112843E0,6.130453587E0
1.443209375E0,4.223036766E0,7.004858971E0,6.049006939E0
1.445213802E0,4.175127029E0,7.014440536E0,6.087334633E0
1.447218229E0,4.175127029E0,7.043186665E0,6.101707458E0
1.449222656E0,4.189499855E0,7.043186665E0,6.049006939E0
1.451227083E0,4.175127029E0,7.057559490E0,5.991515636E0
1.453231510E0,4.146381378E0,7.110260010E0,5.996306419E0
1.455235937E0,4.165544987E0,7.167751312E0,5.986724854E0
1.457240364E0,4.132008553E0,7.158169270E0,5.929233074E0
1.459244792E0,4.179917812E0,7.172542095E0,5.977142811E0
1.461249219E0,4.270946026E0,7.148587704E0,5.962769985E0
1.463253646E0,4.242200375E0,7.230033875E0,5.962769985E0
1.465258073E0,4.251782417E0,7.177333355E0,5.828622818E0
1.467262500E0,4.256573200E0,7.162960529E0,5.823832035E0
1.469266927E0,4.256573200E0,7.148587704E0,5.876532555E0
1.471271354E0,4.270946026E0,7.182124138E0,5.900487423E0
1.473275781E0,4.290110111E0,7.234824657E0,5.900487423E0
1.475280208E0,4.333228588E0,7.368971348E0,6.005888462E0
1.477284635E0,4.136799335E0,7.378553391E0,5.799877167E0
1.479289062E0,3.983488798E0,7.431253910E0,5.589075089E0
1.481293489E0,3.973906994E0,7.392926216E0,5.670521259E0
1.483297917E0,3.858923912E0,7.345016956E0,5.866950512E0
1.485302344E0,4.055353165E0,7.354598522E0,6.063379765E0
1.487306771E0,4.084098816E0,7.345016956E0,6.144826412E0
1.489311198E0,4.045771122E0,7.349807739E0,6.125662327E0
1.491315625E0,4.045771122E0,7.335434914E0,6.058588982E0
1.493320052E0,4.055353165E0,7.364180565E0,6.049006939E0
1.495324479E0,3.930788279E0,7.297107220E0,5.943605900E0
1.497328906E0,3.959533930E0,7.306689262E0,5.847786903E0
1.499333333E0,4.031398296E0,7.292316437E0,5.842996120E0
1.501337760E0,3.868505716E0,7.268361568E0,5.704058170E0
1.503342187E0,3.648121834E0,7.282734394E0,5.617820740E0
1.505346614E0,3.667285681E0,7.321062088E0,5.665730476E0
1.507351042E0,3.648121834E0,7.373762608E0,5.742385864E0
1.509355469E0,3.638539791E0,7.488745213E0,5.771131516E0
1.511359896E0,3.499602079E0,7.512700081E0,5.732803822E0
1.513364323E0,3.355873346E0,7.498327255E0,5.708848953E0
1.515368750E0,3.360664368E0,7.531864166E0,5.723221779E0
1.517373177E0,3.269636154E0,7.565400600E0,5.785504341E0
1.519377604E0,3.240890503E0,7.646847248E0,5.852577686E0
1.521382031E0,3.049252272E0,7.651638031E0,5.742385864E0
1.523386458E0,2.919896364E0,7.560609818E0,5.397437096E0
1.525390885E0,3.068415880E0,7.517491341E0,5.512419701E0
1.527395312E0,3.135489464E0,7.589355469E0,5.900487423E0
1.529399739E0,3.183398962E0,7.608519554E0,6.058588982E0
1.531404167E0,3.111534595E0,7.627683163E0,6.063379765E0
1.533408594E0,3.034879208E0,7.675592899E0,6.101707458E0
1.535413021E0,3.140280247E0,7.632473946E0,6.101707458E0
1.537417448E0,3.135489464E0,7.651638031E0,6.044216156E0
1.539421875E0,3.073206902E0,7.675592899E0,5.972351551E0
1.541426302E0,3.087579727E0,7.661220074E0,5.934024334E0
1.543430729E0,3.044461250E0,7.656428814E0,5.871741772E0
1.545435208E0,3.010924578E0,7.507909298E0,5.833414078E0
1.547439687E0,3.106743574E0,7.579773426E0,5.886114597E0
1.549444167E0,3.077997923E0,7.632473946E0,5.886114597E0
1.551448646E0,3.082788944E0,7.608519554E0,5.938815117E0
1.553453125E0,3.058834076E0,7.598937511E0,5.905278206E0
1.555457604E0,3.202562809E0,7.618101120E0,5.938815117E0
1.557462083E0,3.207353830E0,7.680383682E0,5.986724854E0
1.559466562E0,3.250472307E0,7.680383682E0,5.986724854E0
1.561471042E0,3.260054350E0,7.757039070E0,6.015470505E0
1.563475521E0,3.020506382E0,7.666010857E0,5.574702263E0
1.565480000E0,3.183398962E0,7.474372387E0,5.622612000E0
1.567484479E0,3.427737713E0,7.512700081E0,6.312509537E0
1.569488958E0,3.466065407E0,7.503118515E0,6.480193138E0
1.571493437E0,3.398992062E0,7.469581604E0,6.350837231E0
1.573497917E0,3.499602079E0,7.450417995E0,6.264600277E0
1.575502396E0,3.446901560E0,7.412090302E0,6.096916676E0
1.577506875E0,3.451692581E0,7.349807739E0,6.077752590E0
1.579511354E0,3.571466446E0,7.359389782E0,6.087334633E0
1.581515833E0,3.413364887E0,7.368971348E0,5.981933594E0
1.583520312E0,3.317545652E0,7.321062088E0,5.871741772E0
1.585524792E0,3.365455389E0,7.321062088E0,5.996306419E0
1.587529271E0,3.312754869E0,7.282734394E0,6.058588982E0
1.589533750E0,3.413364887E0,7.321062088E0,6.063379765E0
1.591538229E0,3.523556948E0,7.359389782E0,6.154407978E0
1.593542708E0,3.413364887E0,7.215661049E0,6.029843330E0
1.595547187E0,3.312754869E0,7.119841576E0,5.852577686E0
1.597551667E0,3.226517677E0,7.091095924E0,5.857368946E0
1.599556146E0,3.111534595E0,7.076723099E0,5.886114597E0
1.601560625E0,3.130698442E0,7.004858971E0,5.842996120E0
1.603565104E0,3.159444094E0,6.956949234E0,5.948397160E0
1.605569583E0,3.049252272E0,6.889875889E0,5.871741772E0
1.607574062E0,2.977387905E0,6.971322060E0,5.943605900E0
1.609578542E0,2.713885069E0,6.942576408E0,5.838204861E0
1.611583021E0,2.665975571E0,6.913830757E0,5.833414078E0
1.613587500E0,2.608484030E0,6.932994366E0,5.857368946E0
1.615591979E0,2.546201706E0,6.870711803E0,5.847786903E0
1.617596458E0,2.579738379E0,6.875503063E0,5.771131516E0
1.619600885E0,2.584529400E0,6.875503063E0,5.804668427E0
1.621605312E0,2.555783510E0,6.928203583E0,5.728013039E0
1.623609739E0,2.584529400E0,6.947367191E0,5.713640213E0
1.625614167E0,2.618066072E0,6.990485668E0,5.684894562E0
1.627618594E0,2.512665033E0,7.028813362E0,5.589075089E0
1.629623021E0,2.531828880E0,7.110260010E0,5.617820740E0
1.631627448E0,2.531828880E0,7.162960529E0,5.670521259E0
1.633631875E0,2.517455816E0,7.196496964E0,5.608239174E0
1.635636302E0,2.503082991E0,7.220451832E0,5.536374569E0
1.637640729E0,2.373727322E0,7.263570309E0,5.550747395E0
1.639645156E0,2.297071934E0,7.263570309E0,5.498046875E0
1.641649583E0,2.354563475E0,7.297107220E0,5.565120220E0
1.643654010E0,2.469546318E0,7.325852871E0,5.684894562E0
1.645658437E0,2.598902225E0,7.388135433E0,5.771131516E0
1.647662864E0,2.670766592E0,7.407299042E0,5.828622818E0
1.649667292E0,2.646811724E0,7.397717476E0,5.747176647E0
1.651671719E0,2.598902225E0,7.340225697E0,5.627402782E0
1.653676146E0,2.622857094E0,7.249197483E0,5.665730476E0
1.655680573E0,2.594111204E0,7.249197483E0,5.656148434E0
1.657685000E0,2.733048916E0,7.225242615E0,5.775922298E0
1.659689427E0,2.723467112E0,7.234824657E0,5.804668427E0
1.661693854E0,2.757003784E0,7.230033875E0,5.804668427E0
1.663698281E0,2.785749435E0,7.230033875E0,5.766340733E0
1.665702708E0,2.685139418E0,7.225242615E0,5.555538654E0
1.667707135E0,2.651602745E0,7.206079006E0,5.397437096E0
1.669711562E0,2.819286108E0,7.124632835E0,5.617820740E0
1.671715989E0,2.905523539E0,7.153378487E0,6.025052071E0
1.673720417E0,2.776167631E0,7.124632835E0,6.020261288E0
1.675724844E0,2.757003784E0,7.124632835E0,5.934024334E0
1.677729271E0,2.685139418E0,7.062350273E0,5.842996120E0
1.679733698E0,2.656393766E0,7.047977448E0,5.713640213E0
1.681738125E0,2.555783510E0,6.971322060E0,5.656148434E0
1.683742552E0,2.531828880E0,6.952158451E0,5.608239174E0
1.685746979E0,2.594111204E0,7.024022579E0,5.617820740E0
1.687751406E0,2.541410685E0,6.956949234E0,5.589075089E0
1.689755833E0,2.651602745E0,6.937785149E0,5.636984825E0
1.691760260E0,2.589320183E0,6.995276928E0,5.713640213E0
1.693764687E0,2.584529400E0,7.028813362E0,5.684894562E0
1.695769114E0,2.594111204E0,7.004858971E0,5.704058170E0
1.697773542E0,2.661184549E0,7.009649754E0,5.747176647E0
1.699777969E0,2.646811724E0,6.985694885E0,5.780713558E0
1.701782396E0,2.541410685E0,7.004858971E0,5.680103302E0
1.703786823E0,2.536619663E0,6.995276928E0,5.665730476E0
1.705791250E0,2.656393766E0,7.004858971E0,5.737595081E0
1.707795677E0,2.642020702E0,7.057559490E0,5.728013039E0
1.709800104E0,2.622857094E0,7.028813362E0,5.651357651E0
1.711804531E0,2.632438898E0,7.019231796E0,5.627402782E0
1.713808958E0,2.517455816E0,7.057559490E0,5.622612000E0
1.715813385E0,2.368936300E0,6.937785149E0,5.598657131E0
1.717817812E0,2.474337339E0,6.961740017E0,5.646566868E0
1.719822239E0,2.646811724E0,7.024022579E0,5.823832035E0
1.721826667E0,2.651602745E0,7.067141056E0,5.756758690E0
1.723831094E0,2.594111204E0,7.004858971E0,5.684894562E0
1.725835521E0,2.565365553E0,6.980904102E0,5.593866348E0
1.727839948E0,2.536619663E0,7.043186665E0,5.627402782E0
1.729844375E0,2.397681952E0,7.081513882E0,5.598657131E0
1.731848802E0,2.479128361E0,7.172542095E0,5.675312519E0
1.733853229E0,2.560574532E0,7.268361568E0,5.694476128E0
1.735857656E0,2.627647877E0,7.292316437E0,5.627402782E0
1.737862083E0,2.642020702E0,7.402508259E0,5.569911480E0
1.739866510E0,2.301862955E0,7.431253910E0,5.177052975E0
1.741870937E0,2.431218624E0,7.325852871E0,4.937505245E0
1.743875364E0,2.694721222E0,7.445626736E0,5.579493523E0
1.745879792E0,2.713885069E0,7.589355469E0,5.795086384E0
1.747884219E0,2.790540457E0,7.507909298E0,5.694476128E0
1.749888646E0,2.771376610E0,7.522282124E0,5.665730476E0
1.751893073E0,2.843240976E0,7.522282124E0,5.646566868E0
1.753897500E0,2.804913282E0,7.455208778E0,5.560329437E0
1.755901927E0,2.895941496E0,7.354598522E0,5.522001743E0
1.757906354E0,2.871986866E0,7.325852871E0,5.613029957E0
1.759910833E0,2.895941496E0,7.407299042E0,5.641775608E0
1.761915312E0,2.963014841E0,7.407299042E0,5.569911480E0
1.763919792E0,2.804913282E0,7.316270828E0,5.454928398E0
1.765924271E0,2.680348396E0,7.277943134E0,5.507628918E0
1.767928750E0,2.752212763E0,7.311480045E0,5.574702263E0
1.769933229E0,2.718676090E0,7.311480045E0,5.478883266E0
1.771937708E0,2.584529400E0,7.287525177E0,5.349527359E0
1.773942187E0,2.474337339E0,7.392926216E0,5.210589409E0
1.775946667E0,2.680348396E0,7.517491341E0,5.186635017E0
1.777951146E0,2.757003784E0,7.555819035E0,5.325572491E0
1.779955625E0,2.848031998E0,7.555819035E0,5.474092007E0
1.781960104E0,2.905523539E0,7.527072906E0,5.593866348E0
1.783964583E0,2.795331478E0,7.488745213E0,5.531583786E0
1.785969062E0,2.809704304E0,7.512700081E0,5.589075089E0
1.787973542E0,2.790540457E0,7.512700081E0,5.598657131E0
1.789978021E0,2.780958652E0,7.522282124E0,5.526792526E0
1.791982500E0,2.900732517E0,7.507909298E0,5.603447914E0
1.793986979E0,2.824077129E0,7.565400600E0,5.507628918E0
1.795991458E0,2.804913282E0,7.503118515E0,5.488465309E0
1.797995937E0,2.723467112E0,7.469581604E0,5.608239174E0
1.800000417E0,2.459964514E0,7.479163647E0,5.512419701E0
1.802004896E0,2.349772453E0,7.445626736E0,5.536374569E0
1.804009375E0,2.354563475E0,7.440835953E0,5.565120220E0
1.806013854E0,2.555783510E0,7.536654949E0,5.684894562E0
1.808018333E0,2.651602745E0,7.536654949E0,5.651357651E0
1.810022812E0,2.608484030E0,7.541445732E0,5.613029957E0
1.812027292E0,2.632438898E0,7.527072906E0,5.593866348E0
1.814031771E0,2.512665033E0,7.512700081E0,5.593866348E0
1.816036250E0,2.368936300E0,7.474372387E0,5.411809921E0
1.818040729E0,2.378518105E0,7.483954430E0,5.478883266E0
1.820045208E0,2.239580393E0,7.474372387E0,5.426182747E0
1.822049687E0,2.321026802E0,7.431253910E0,5.478883266E0
1.824054167E0,2.436009645E0,7.373762608E0,5.560329437E0
1.826058646E0,2.455173492E0,7.311480045E0,5.498046875E0
1.828063125E0,2.306653738E0,7.397717476E0,5.440555573E0
1.830067604E0,2.392890930E0,7.340225697E0,5.474092007E0
1.832072083E0,2.340190411E0,7.402508259E0,5.430973530E0
1.834076510E0,2.182088852E0,7.287525177E0,5.373482227E0
1.836080937E0,2.067106009E0,7.297107220E0,5.368690968E0
1.838085364E0,2.172507048E0,7.273152351E0,5.459719181E0
1.840089792E0,2.172507048E0,7.172542095E0,5.478883266E0
1.842094219E0,2.143761158E0,7.004858971E0,5.450137615E0
1.844098646E0,1.990450621E0,6.942576408E0,5.378273010E0
1.846103073E0,1.932959199E0,6.880293846E0,5.426182747E0
1.848107500E0,1.904213428E0,6.899457932E0,5.488465309E0
1.850111927E0,2.033569336E0,7.019231796E0,5.507628918E0
1.852116354E0,2.086269855E0,7.067141056E0,5.550747395E0
1.854120781E0,2.153343201E0,7.110260010E0,5.522001743E0
1.856125208E0,2.095851660E0,7.043186665E0,5.426182747E0
1.858129635E0,2.148552179E0,7.067141056E0,5.569911480E0
1.860134062E0,2.277908087E0,7.182124138E0,5.723221779E0
1.862138489E0,2.234789371E0,7.201288223E0,5.641775608E0
1.864142917E0,2.206043720E0,7.215661049E0,5.622612000E0
1.866147344E0,2.225207567E0,7.201288223E0,5.651357651E0
1.868151771E0,2.225207567E0,7.220451832E0,5.651357651E0
1.870156198E0,2.210834742E0,7.244406700E0,5.694476128E0
1.872160625E0,2.306653738E0,7.215661049E0,5.756758690E0
1.874165052E0,2.335399628E0,7.249197483E0,5.785504341E0
1.876169479E0,2.311444759E0,7.220451832E0,5.656148434E0
1.878173906E0,2.364145279E0,7.230033875E0,5.737595081E0
1.880178333E0,2.335399628E0,7.210869789E0,5.689685345E0
1.882182760E0,2.321026802E0,7.230033875E0,5.704058170E0
1.884187187E0,2.335399628E0,7.277943134E0,5.670521259E0
1.886191614E0,2.249162436E0,7.277943134E0,5.622612000E0
1.888196042E0,2.282699108E0,7.249197483E0,5.680103302E0
1.890200469E0,2.297071934E0,7.239615440E0,5.660939693E0
1.892204896E0,2.292280912E0,7.206079006E0,5.656148434E0
1.894209323E0,2.292280912E0,7.182124138E0,5.603447914E0
1.896213750E0,2.273117065E0,7.162960529E0,5.622612000E0
1.898218177E0,2.249162436E0,7.139005661E0,5.622612000E0
1.900222604E0,2.167716026E0,7.129423618E0,5.593866348E0
1.902227031E0,2.167716026E0,7.105468750E0,5.584284306E0
1.904231458E0,2.153343201E0,7.095887184E0,5.579493523E0
1.906235885E0,2.162925005E0,7.086305141E0,5.593866348E0
1.908240312E0,2.167716026E0,7.100677967E0,5.593866348E0
1.910244739E0,2.186879873E0,7.115050793E0,5.593866348E0
1.912249167E0,2.191670895E0,7.134214401E0,5.565120220E0
1.914253594E0,2.196461916E0,7.172542095E0,5.569911480E0
1.916258021E0,2.186879873E0,7.196496964E0,5.550747395E0
1.918262448E0,2.201252699E0,7.234824657E0,5.536374569E0
1.920266875E0,2.225207567E0,7.263570309E0,5.522001743E0
1.922271302E0,2.196461916E0,7.297107220E0,5.526792526E0
1.924275729E0,2.215625525E0,7.301898003E0,5.502838135E0
1.926280156E0,2.229998589E0,7.325852871E0,5.507628918E0
1.928284583E0,2.239580393E0,7.335434914E0,5.522001743E0
1.930289010E0,2.234789371E0,7.349807739E0,5.522001743E0
1.932293437E0,2.277908087E0,7.345016956E0,5.531583786E0
1.934297864E0,2.301862955E0,7.368971348E0,5.522001743E0
1.936302292E0,2.335399628E0,7.373762608E0,5.545956612E0
1.938306719E0,2.373727322E0,7.345016956E0,5.536374569E0
1.940311146E0,2.412054777E0,7.373762608E0,5.522001743E0
1.942315573E0,2.459964514E0,7.378553391E0,5.498046875E0
1.944320000E0,2.488710165E0,7.383344173E0,5.469301224E0
1.946324427E0,2.550992727E0,7.407299042E0,5.445346355E0
1.948328854E0,2.565365553E0,7.416881084E0,5.445346355E0
1.950333281E0,2.584529400E0,7.440835953E0,5.426182747E0
1.952337708E0,2.618066072E0,7.431253910E0,5.402227879E0
1.954342135E0,2.661184549E0,7.440835953E0,5.368690968E0
1.956346562E0,2.670766592E0,7.455208778E0,5.363900185E0
1.958350989E0,2.685139418E0,7.459999561E0,5.330363750E0
1.960355417E0,2.685139418E0,7.474372387E0,5.301617622E0
1.962359844E0,2.685139418E0,7.464790821E0,5.282454014E0
1.964364271E0,2.680348396E0,7.483954430E0,5.258499146E0
1.966368698E0,2.651602745E0,7.469581604E0,5.229753494E0
1.968373125E0,2.632438898E0,7.436044693E0,5.215380669E0
1.970377552E0,2.627647877E0,7.426463127E0,5.186635017E0
1.972381979E0,2.594111204E0,7.407299042E0,5.191425800E0
1.974386458E0,2.555783510E0,7.373762608E0,5.177052975E0
1.976390937E0,2.531828880E0,7.316270828E0,5.181843758E0
1.978395417E0,2.507874012E0,7.263570309E0,5.172261715E0
1.980399896E0,2.455173492E0,7.225242615E0,5.172261715E0
1.982404375E0,2.416845798E0,7.158169270E0,5.196216583E0
1.984408854E0,2.368936300E0,7.071932316E0,5.220171452E0
1.986413333E0,2.325817585E0,7.004858971E0,5.248917103E0
1.988417812E0,2.263535261E0,6.952158451E0,5.272871971E0
1.990422292E0,2.177298069E0,6.870711803E0,5.339945316E0
1.992426771E0,2.110224485E0,6.765310764E0,5.349527359E0
1.994431250E0,2.062314987E0,6.683864594E0,5.373482227E0
1.996435729E0,1.995241642E0,6.583254337E0,5.421391487E0
1.998440208E0,1.909004331E0,6.492226601E0,5.454928398E0
2.000444687E0,1.841930985E0,6.391616344E0,5.445346355E0
2.002449167E0,1.770066619E0,6.291006088E0,5.474092007E0
2.004453646E0,1.621546984E0,6.199977875E0,5.522001743E0
2.006458125E0,1.794021368E0,5.979593754E0,5.478883266E0
2.008462604E0,1.741320848E0,5.835865021E0,5.469301224E0
2.010467083E0,1.401162982E0,5.955639362E0,5.660939693E0
2.012471562E0,1.386790037E0,5.764000893E0,5.560329437E0
2.014476042E0,1.343671441E0,5.658599854E0,5.569911480E0
2.016480521E0,1.281388998E0,5.586735249E0,5.589075089E0
2.018485000E0,1.152033210E0,5.548408031E0,5.613029957E0
2.020489479E0,1.084959745E0,5.495707512E0,5.622612000E0
2.022493958E0,1.056213975E0,5.443006992E0,5.641775608E0
2.024498437E0,1.032259226E0,5.404679298E0,5.632194042E0
2.026502917E0,9.795587063E-1,5.366351604E0,5.613029957E0
2.028507396E0,9.843496680E-1,5.356769562E0,5.613029957E0
2.030511875E0,9.699767828E-1,5.361560345E0,5.574702263E0
2.032516354E0,9.603948593E-1,5.414260864E0,5.512419701E0
2.034520833E0,9.460219741E-1,5.428633690E0,5.478883266E0
2.036525312E0,1.003513575E0,5.505289078E0,5.440555573E0
2.038529792E0,1.046632171E0,5.586735249E0,5.430973530E0
2.040534271E0,1.089750767E0,5.696927547E0,5.397437096E0
2.042538750E0,1.142451286E0,5.816701412E0,5.363900185E0
2.044543229E0,1.252643228E0,5.974802971E0,5.315990448E0
2.046547708E0,1.338880539E0,6.108949661E0,5.315990448E0
2.048552187E0,1.429908633E0,6.276633263E0,5.301617622E0
2.050556614E0,1.492191076E0,6.463480473E0,5.311199665E0
2.052561042E0,1.635919809E0,6.650328159E0,5.320781708E0
2.054565469E0,1.750902772E0,6.846757412E0,5.296826839E0
2.056569896E0,1.880258679E0,7.062350273E0,5.287244797E0
2.058574323E0,2.028778315E0,7.273152351E0,5.320781708E0
2.060578750E0,2.220416546E0,7.498327255E0,5.344736576E0
2.062583177E0,2.344981432E0,7.733084202E0,5.363900185E0
2.064587604E0,2.536619663E0,7.963050365E0,5.368690968E0
2.066592031E0,2.713885069E0,8.164270401E0,5.325572491E0
2.068596458E0,2.867195845E0,8.341535568E0,5.306408882E0
2.070600885E0,3.054043055E0,8.542756081E0,5.282454014E0
2.072605312E0,3.240890503E0,8.743976593E0,5.292036057E0
2.074609739E0,3.456483603E0,8.911659241E0,5.292036057E0
2.076614167E0,3.605003119E0,9.026642799E0,5.220171452E0
2.078618594E0,3.796641350E0,9.160789490E0,5.205798626E0
2.080623021E0,3.964324951E0,9.251817703E0,5.124352455E0
2.082627448E0,4.141590595E0,9.376382828E0,5.071651936E0
2.084631875E0,4.266155243E0,9.409918785E0,5.057279110E0
2.086636302E0,4.405093193E0,9.438665390E0,4.951878071E0
2.088640729E0,4.529657841E0,9.472201347E0,4.860849857E0
2.090645156E0,4.659013748E0,9.467411041E0,4.784194469E0
2.092649583E0,4.793160439E0,9.453038216E0,4.721911907E0
2.094654010E0,4.917725563E0,9.419501305E0,4.683584213E0
2.096658437E0,4.994380951E0,9.395545959E0,4.659629345E0
2.098662864E0,5.071035862E0,9.338054657E0,4.626092911E0
2.100667292E0,5.181228161E0,9.261399269E0,4.597347260E0
2.102671719E0,5.262674332E0,9.117671013E0,4.573392391E0
2.104676146E0,5.267465115E0,9.041015625E0,4.573392391E0
2.106680573E0,5.267465115E0,8.988314629E0,4.520691872E0
2.108685000E0,5.253092289E0,8.926033020E0,4.482364178E0
2.110689427E0,5.272256374E0,8.835004807E0,4.496737003E0
2.112693854E0,5.238719463E0,8.734394073E0,4.458409309E0
2.114698281E0,5.152482510E0,8.715229988E0,4.487154961E0
2.116702708E0,5.042290211E0,8.667321205E0,4.520691872E0
2.118707135E0,4.879397869E0,8.638575554E0,4.559019566E0
2.120711562E0,4.730877876E0,8.528383255E0,4.573392391E0
2.122715989E0,4.606313229E0,8.413399696E0,4.683584213E0
2.124720417E0,4.405093193E0,8.375072479E0,4.726702690E0
2.126724844E0,4.251782417E0,8.231344223E0,4.774612427E0
2.128729271E0,4.036189556E0,8.145106316E0,4.937505245E0
2.130733698E0,3.935579300E0,8.058869362E0,4.975832462E0
2.132738125E0,3.763104677E0,7.886394978E0,5.004578590E0
2.134742552E0,3.619375944E0,7.737874985E0,5.038115025E0
2.136746979E0,3.437319756E0,7.618101120E0,5.119561195E0
2.138751406E0,3.293591022E0,7.459999561E0,5.229753494E0
2.140755833E0,3.169026136E0,7.373762608E0,5.172261715E0
2.142760260E0,3.039670229E0,7.335434914E0,5.014160156E0
2.144764687E0,2.982178688E0,7.292316437E0,5.014160156E0
2.146769114E0,2.857613802E0,7.258779526E0,4.937505245E0
2.148773542E0,2.757003784E0,7.230033875E0,4.894386292E0
2.150777969E0,2.646811724E0,7.182124138E0,4.994996548E0
2.152782396E0,2.522246838E0,7.119841576E0,4.985414505E0
2.154786823E0,2.407263994E0,7.014440536E0,4.994996548E0
2.156791250E0,2.239580393E0,6.923412323E0,5.090815544E0
2.158795677E0,2.124597549E0,6.961740017E0,5.052487850E0
2.160800104E0,2.043151140E0,7.110260010E0,4.971041679E0
2.162804531E0,1.952123046E0,7.273152351E0,4.822522163E0
2.164808958E0,1.880258679E0,7.440835953E0,4.726702690E0
2.166813385E0,1.760484695E0,7.536654949E0,4.760239601E0
2.168817812E0,1.669456482E0,7.666010857E0,4.707539082E0
2.170822239E0,1.626337886E0,7.843276501E0,4.602138042E0
2.172826667E0,1.588010311E0,8.030123711E0,4.554228306E0
2.174831094E0,1.549682617E0,8.260089874E0,4.530273914E0
2.176835521E0,1.492191076E0,8.499637604E0,4.458409309E0
2.178839948E0,1.453863502E0,8.758349419E0,4.261980057E0
2.180844375E0,1.444281578E0,8.973941803E0,4.132624149E0
2.182848802E0,1.439490557E0,9.151207924E0,4.089505672E0
2.184853281E0,1.439490557E0,9.299727440E0,4.017641068E0
2.186857760E0,1.425117731E0,9.414710045E0,3.979313612E0
2.188862239E0,1.381999135E0,9.520111084E0,3.979313612E0
2.190866719E0,1.410744786E0,9.553647995E0,3.936194897E0
2.192871198E0,1.425117731E0,9.572812080E0,3.897867441E0
2.194875677E0,1.429908633E0,9.568020821E0,3.869121552E0
2.196880156E0,1.439490557E0,9.548856735E0,3.845166922E0
2.198884635E0,1.458654404E0,9.529693604E0,3.859539747E0
2.200889114E0,1.506564021E0,9.500946999E0,3.826003075E0
2.202893594E0,1.573637366E0,9.453038216E0,3.691856146E0
2.204898073E0,1.674247503E0,9.433874130E0,3.629573822E0
2.206902552E0,1.717366099E0,9.405128479E0,3.624782801E0
2.208907031E0,1.803603292E0,9.347637177E0,3.648737669E0
2.210911510E0,1.856303811E0,9.323681831E0,3.682274342E0
2.212915989E0,1.932959199E0,9.242236137E0,3.687065125E0
2.214920469E0,2.000032663E0,9.160789490E0,3.715811014E0
2.216924948E0,2.071897030E0,9.079342842E0,3.730183840E0
2.218929427E0,2.182088852E0,9.007478714E0,3.773302555E0
2.220933906E0,2.249162436E0,8.921241760E0,3.797257185E0
2.222938385E0,2.321026802E0,8.844586372E0,3.787675381E0
2.224942864E0,2.344981432E0,8.772722244E0,3.826003075E0
2.226947344E0,2.402472973E0,8.724812508E0,3.830793858E0
2.228951823E0,2.464755297E0,8.648157120E0,3.864330769E0
2.230956302E0,2.507874012E0,8.628993034E0,3.835584879E0
2.232960781E0,2.550992727E0,8.585874557E0,3.830793858E0
2.234965260E0,2.579738379E0,8.576292992E0,3.802048206E0
2.236969739E0,2.622857094E0,8.566710472E0,3.744556665E0
2.238974219E0,2.704303265E0,8.561920166E0,3.739765882E0
2.240978698E0,2.728258133E0,8.585874557E0,3.711019993E0
2.242983177E0,2.771376610E0,8.628993034E0,3.682274342E0
2.244987656E0,2.814495325E0,8.720021248E0,3.667901516E0
2.246992135E0,2.838449955E0,8.801467896E0,3.610409975E0
2.248996614E0,2.871986866E0,8.906868935E0,3.557709455E0
2.251001094E0,2.943850994E0,9.012269974E0,3.485845089E0
2.253005573E0,3.010924578E0,9.117671013E0,3.447517395E0
2.255010052E0,3.140280247E0,9.189535141E0,3.490636110E0
2.257014531E0,3.202562809E0,9.290144920E0,3.457099199E0
2.259019010E0,3.274427176E0,9.366800308E0,3.423562527E0
2.261023489E0,3.360664368E0,9.457828522E0,3.361280203E0
2.263027917E0,3.432528734E0,9.544066429E0,3.289415836E0
2.265032344E0,3.509184122E0,9.596766472E0,3.265460968E0
2.267036771E0,3.638539791E0,9.625512123E0,3.251088142E0
2.269041198E0,3.729568005E0,9.687794685E0,3.212760448E0
2.271045625E0,3.834969044E0,9.716540337E0,3.203178644E0
2.273050052E0,3.940370083E0,9.745285988E0,3.188805819E0
2.275054479E0,4.040980339E0,9.745285988E0,3.236715317E0
2.277058906E0,4.141590595E0,9.750077248E0,3.241506338E0
2.279063333E0,4.218245506E0,9.716540337E0,3.255879164E0
2.281067760E0,4.280528069E0,9.711749077E0,3.260669947E0
2.283072187E0,4.366765499E0,9.663840294E0,3.303788662E0
2.285076614E0,4.453002453E0,9.620721817E0,3.313370705E0
2.287081042E0,4.524867058E0,9.539275169E0,3.322952509E0
2.289085469E0,4.591940403E0,9.462619781E0,3.327743530E0
2.291089896E0,4.601522446E0,9.362010002E0,3.337325335E0
2.293094323E0,4.635058880E0,9.299727440E0,3.356489182E0
2.295098750E0,4.692550659E0,9.179953575E0,3.366071224E0
2.297103177E0,4.721296310E0,9.093715668E0,3.356489182E0
2.299107604E0,4.769205570E0,9.002687454E0,3.370862007E0
2.301112031E0,4.807533264E0,8.897286415E0,3.385234833E0
2.303116458E0,4.821906090E0,8.811049461E0,3.409189701E0
2.305120885E0,4.826697350E0,8.710439682E0,3.394816875E0
2.307125312E0,4.850652218E0,8.638575554E0,3.385234833E0
2.309129739E0,4.893770695E0,8.576292992E0,3.418771744E0
2.311134167E0,4.912934303E0,8.480473518E0,3.485845089E0
2.313138594E0,4.903352737E0,8.432563782E0,3.500217915E0
2.315143021E0,4.912934303E0,8.394236565E0,3.533754587E0
2.317147448E0,4.941680431E0,8.360699654E0,3.591246128E0
2.319151875E0,4.965634823E0,8.331954002E0,3.648737669E0
2.321156302E0,4.980007648E0,8.341535568E0,3.691856146E0
2.323160729E0,4.999171734E0,8.327162743E0,3.720602036E0
2.325165156E0,5.013544559E0,8.312789917E0,3.725392818E0
2.327169583E0,5.047081470E0,8.303208351E0,3.725392818E0
2.329174010E0,5.066245079E0,8.293625832E0,3.720602036E0
2.331178437E0,5.104572773E0,8.264880180E0,3.730183840E0
2.333182864E0,5.133318424E0,8.269671440E0,3.706228971E0
2.335187292E0,5.195600986E0,8.264880180E0,3.725392818E0
2.337191719E0,5.238719463E0,8.255298615E0,3.758929491E0
2.339196146E0,5.296211243E0,8.284044266E0,3.778093338E0
2.341200573E0,5.348911762E0,8.284044266E0,3.806839228E0
2.343205000E0,5.363284588E0,8.284044266E0,3.787675381E0
2.345209427E0,5.406403065E0,8.303208351E0,3.797257185E0
2.347213854E0,5.449521542E0,8.312789917E0,3.763720512E0
2.349218281E0,5.463894367E0,8.341535568E0,3.758929491E0
2.351222708E0,5.535758972E0,8.346326828E0,3.797257185E0
2.353227135E0,5.559713840E0,8.379863739E0,3.773302555E0
2.355231562E0,5.578877449E0,8.408609390E0,3.758929491E0
2.357235989E0,5.602832317E0,8.422982216E0,3.749347687E0
2.359240417E0,5.626787186E0,8.442146301E0,3.730183840E0
2.361244844E0,5.645950794E0,8.470891953E0,3.706228971E0
2.363249271E0,5.679487705E0,8.514010429E0,3.711019993E0
2.365253698E0,5.722606182E0,8.518801689E0,3.715811014E0
2.367258125E0,5.736979008E0,8.518801689E0,3.739765882E0
2.369262552E0,5.775306702E0,8.518801689E0,3.734974861E0
2.371266979E0,5.851962090E0,8.523591995E0,3.778093338E0
2.373271406E0,5.880707741E0,8.518801689E0,3.739765882E0
2.375275833E0,5.885498524E0,8.533174515E0,3.782884359E0
2.377280260E0,5.885498524E0,8.571501732E0,3.739765882E0
2.379284687E0,5.899871826E0,8.609828949E0,3.711019993E0
2.381289114E0,5.923826218E0,8.609828949E0,3.677483320E0
2.383293542E0,5.966945171E0,8.628993034E0,3.687065125E0
2.385297969E0,5.986108780E0,8.648157120E0,3.624782801E0
2.387302396E0,6.005272865E0,8.648157120E0,3.576873302E0
2.389306823E0,5.971735954E0,8.681694031E0,3.528963566E0
2.391311250E0,6.014854431E0,8.652948380E0,3.495426893E0
2.393315729E0,6.057973385E0,8.648157120E0,3.505008936E0
2.395320208E0,6.072346210E0,8.672111511E0,3.466681242E0
2.397324687E0,6.091509819E0,8.710439682E0,3.433144569E0
2.399329167E0,6.086719036E0,8.739185333E0,3.394816875E0
2.401333646E0,6.105882645E0,8.772722244E0,3.366071224E0
2.403338125E0,6.115464687E0,8.791885376E0,3.351698160E0
2.405342604E0,6.144210339E0,8.830213547E0,3.356489182E0
2.407347083E0,6.110673904E0,8.868540764E0,3.322952509E0
2.409351562E0,6.101091862E0,8.892496109E0,3.318161488E0
2.411356042E0,6.081927776E0,8.949987411E0,3.322952509E0
2.413360521E0,6.034018517E0,8.969151497E0,3.279833794E0
2.415365000E0,5.981317997E0,9.041015625E0,3.289415836E0
2.417369479E0,5.904662609E0,9.112879753E0,3.255879164E0
2.419373958E0,5.871125698E0,9.199116707E0,3.227133274E0
2.421378437E0,5.861544132E0,9.218280792E0,3.231924295E0
2.423382917E0,5.804052353E0,9.299727440E0,3.227133274E0
2.425387396E0,5.765724659E0,9.352427483E0,3.231924295E0
2.427391875E0,5.684278488E0,9.419501305E0,3.241506338E0
2.429396354E0,5.727396965E0,9.453038216E0,3.227133274E0
2.431400833E0,5.708233356E0,9.462619781E0,3.270251989E0
2.433405312E0,5.665114880E0,9.486574173E0,3.294206858E0
2.435409792E0,5.660323620E0,9.496156693E0,3.298997641E0
2.437414271E0,5.645950794E0,9.505738258E0,3.322952509E0
2.439418750E0,5.665114880E0,9.472201347E0,3.385234833E0
2.441423229E0,5.665114880E0,9.424292564E0,3.447517395E0
2.443427708E0,5.689069748E0,9.338054657E0,3.471472263E0
2.445432187E0,5.655532837E0,9.280563354E0,3.481054068E0
2.447436667E0,5.631577969E0,9.208699226E0,3.476263046E0
2.449441146E0,5.569295406E0,9.213489532E0,3.505008936E0
2.451445625E0,5.559713840E0,9.132043839E0,3.509799719E0
2.453450104E0,5.540549755E0,9.069761276E0,3.495426893E0
2.455454583E0,5.516594887E0,9.002687454E0,3.490636110E0
2.457459062E0,5.483058453E0,8.969151497E0,3.524172783E0
2.459463542E0,5.449521542E0,8.916450500E0,3.481054068E0
2.461468021E0,5.411193848E0,8.887704849E0,3.466681242E0
2.463472500E0,5.382448196E0,8.835004807E0,3.471472263E0
2.465476979E0,5.363284588E0,8.796676636E0,3.433144569E0
2.467481458E0,5.320165634E0,8.758349419E0,3.390025854E0
2.469485937E0,5.281837940E0,8.729603767E0,3.380444050E0
2.471490364E0,5.262674332E0,8.696066856E0,3.361280203E0
2.473494792E0,5.195600986E0,8.700857162E0,3.356489182E0
2.475499219E0,5.152482510E0,8.691275597E0,3.322952509E0
2.477503646E0,5.104572773E0,8.681694031E0,3.284624815E0
2.479508073E0,5.080617905E0,8.652948380E0,3.265460968E0
2.481512500E0,5.085408688E0,8.624202728E0,3.251088142E0
2.483516927E0,5.061454296E0,8.576292992E0,3.212760448E0
2.485521354E0,5.018335342E0,8.566710472E0,3.155268908E0
2.487525781E0,4.994380951E0,8.528383255E0,3.112150431E0
2.489530208E0,4.989589691E0,8.499637604E0,3.073822737E0
2.491534635E0,4.975216866E0,8.446936607E0,3.040286064E0
2.493539062E0,4.927307129E0,8.418190956E0,3.011540174E0
2.495543489E0,4.956053257E0,8.346326828E0,3.016331196E0
2.497547917E0,4.970426083E0,8.269671440E0,3.045077085E0
2.499552344E0,4.941680431E0,8.221761703E0,3.049867868E0
2.501556771E0,4.965634823E0,8.125943184E0,3.078613758E0
2.503561198E0,4.946471214E0,8.039705276E0,3.131314278E0
2.505565625E0,4.912934303E0,7.987004757E0,3.140896082E0
2.507570052E0,4.936889172E0,7.891185760E0,3.198387623E0
2.509574479E0,4.908143520E0,7.833694458E0,3.251088142E0
2.511578906E0,4.898561478E0,7.776202679E0,3.275043011E0
2.513583333E0,4.855443001E0,7.728293419E0,3.298997641E0
2.515587760E0,4.802742481E0,7.661220074E0,3.313370705E0
2.517592187E0,4.726087093E0,7.637265205E0,3.313370705E0
2.519596614E0,4.682968616E0,7.618101120E0,3.327743530E0
2.521601042E0,4.625476837E0,7.603728294E0,3.337325335E0
2.523605469E0,4.587149620E0,7.584564686E0,3.318161488E0
2.525609896E0,4.553612709E0,7.574982643E0,3.342116356E0
2.527614323E0,4.476957321E0,7.555819035E0,3.337325335E0
2.529618750E0,4.481748104E0,7.536654949E0,3.332534313E0
2.531623177E0,4.481748104E0,7.541445732E0,3.346907377E0
2.533627604E0,4.476957321E0,7.512700081E0,3.351698160E0
2.535632031E0,4.529657841E0,7.479163647E0,3.342116356E0
2.537636458E0,4.534448624E0,7.498327255E0,3.322952509E0
2.539640885E0,4.510494232E0,7.469581604E0,3.294206858E0
2.541645312E0,4.510494232E0,7.474372387E0,3.284624815E0
2.543649739E0,4.572776318E0,7.426463127E0,3.303788662E0
2.545654167E0,4.553612709E0,7.421671867E0,3.246297121E0
2.547658594E0,4.500912189E0,7.397717476E0,3.217551470E0
2.549663021E0,4.567985535E0,7.354598522E0,3.203178644E0
2.551667448E0,4.635058880E0,7.325852871E0,3.188805819E0
2.553671875E0,4.726087093E0,7.297107220E0,3.212760448E0
2.555676302E0,4.754832745E0,7.239615440E0,3.217551470E0
2.557680729E0,4.826697350E0,7.201288223E0,3.193596601E0
2.559685156E0,4.865025043E0,7.162960529E0,3.174432755E0
2.561689583E0,4.917725563E0,7.105468750E0,3.169641972E0
2.563694010E0,4.960844040E0,7.067141056E0,3.145687103E0
2.565698437E0,4.975216866E0,7.019231796E0,3.097777605E0
2.567702864E0,4.951261997E0,6.980904102E0,3.045077085E0
2.569707292E0,5.018335342E0,6.942576408E0,3.035495043E0
2.571711719E0,5.056663036E0,6.875503063E0,2.997167349E0
2.573716146E0,5.152482510E0,6.818011284E0,2.973212719E0
2.575720573E0,5.205183029E0,6.765310764E0,2.944466829E0
2.577725000E0,5.243510723E0,6.698237419E0,2.925302982E0
2.579729427E0,5.224346638E0,6.631164074E0,2.891766310E0
2.581733854E0,5.253092289E0,6.564090729E0,2.886975288E0
2.583738281E0,5.281837940E0,6.511390209E0,2.891766310E0
2.585742708E0,5.344120502E0,6.449107647E0,2.901348352E0
2.587747135E0,5.353702545E0,6.420361996E0,2.934885025E0
2.589751562E0,5.406403065E0,6.343706608E0,2.944466829E0
2.591755989E0,5.454312801E0,6.334124565E0,2.973212719E0
2.593760417E0,5.478267193E0,6.262260437E0,2.982794523E0
2.595764844E0,5.492640495E0,6.267051220E0,3.006749392E0
2.597769271E0,5.526176929E0,6.252678394E0,3.021122217E0
2.599773750E0,5.487849236E0,6.243096828E0,3.025913239E0
2.601778229E0,5.497431278E0,6.238305569E0,3.030704021E0
2.603782708E0,5.439939976E0,6.238305569E0,3.045077085E0
2.605787187E0,5.473476410E0,6.214350700E0,3.054658890E0
2.607791667E0,5.487849236E0,6.214350700E0,3.069031715E0
2.609796146E0,5.530967712E0,6.190396309E0,3.145687103E0
2.611800625E0,5.588459492E0,6.171232224E0,3.193596601E0
2.613805104E0,5.588459492E0,6.132904530E0,3.184014797E0
2.615809583E0,5.617205143E0,6.123322487E0,3.207969427E0
2.617814062E0,5.693860531E0,6.113740921E0,3.222342491E0
2.619818542E0,5.703442574E0,6.104158878E0,3.227133274E0
2.621823021E0,5.713024139E0,6.080204010E0,3.217551470E0
2.623827500E0,5.794470787E0,6.041876316E0,3.260669947E0
2.625831979E0,5.866334915E0,6.027503490E0,3.275043011E0
2.627836458E0,5.933408260E0,6.008339882E0,3.289415836E0
2.629840937E0,5.942990303E0,5.998757839E0,3.255879164E0
2.631845417E0,5.962153912E0,5.970012188E0,3.270251989E0
2.633849896E0,5.962153912E0,5.950848103E0,3.265460968E0
2.635854375E0,6.062764168E0,5.922102451E0,3.251088142E0
2.637858854E0,6.134628296E0,5.907729626E0,3.275043011E0
2.639863333E0,6.259193420E0,5.912520409E0,3.294206858E0
2.641867812E0,6.240029812E0,5.922102451E0,3.289415836E0
2.643872292E0,6.254402637E0,5.950848103E0,3.231924295E0
2.645876771E0,6.187329292E0,5.974802971E0,3.150478125E0
2.647881250E0,6.273566246E0,5.965220928E0,3.126523256E0
2.649885729E0,6.383758068E0,5.998757839E0,3.126523256E0
2.651890208E0,6.369385242E0,6.017921448E0,3.088195562E0
2.653894687E0,6.398131371E0,6.027503490E0,3.078613758E0
2.655899167E0,6.412504196E0,6.051458359E0,3.049867868E0
2.657903646E0,6.450831890E0,6.051458359E0,3.025913239E0
2.659908125E0,6.652051926E0,6.056249142E0,3.054658890E0
2.661912604E0,6.676006794E0,6.056249142E0,3.069031715E0
2.663917083E0,6.747870922E0,6.037085533E0,3.107359409E0
2.665921562E0,6.814944267E0,6.037085533E0,3.107359409E0
2.667926042E0,6.814944267E0,6.032294273E0,3.136105061E0
2.669930521E0,6.891599655E0,6.003548622E0,3.145687103E0
2.671935000E0,6.929927349E0,5.998757839E0,3.140896082E0
2.673939479E0,6.963464260E0,5.970012188E0,3.174432755E0
2.675943958E0,6.958673000E0,5.946057320E0,3.188805819E0
2.677948437E0,6.953882217E0,5.917311668E0,3.193596601E0
2.679952864E0,6.920345306E0,5.888565540E0,3.193596601E0
2.681957292E0,6.901181698E0,5.869401932E0,3.203178644E0
2.683961719E0,6.896390915E0,5.850238323E0,3.241506338E0
2.685966146E0,6.858063221E0,5.840656281E0,3.298997641E0
2.687970573E0,6.858063221E0,5.807119370E0,3.356489182E0
2.689975000E0,6.862854004E0,5.797537804E0,3.361280203E0
2.691979427E0,6.795780659E0,5.807119370E0,3.385234833E0
2.693983854E0,6.752662182E0,5.802328587E0,3.370862007E0
2.695988281E0,6.795780659E0,5.802328587E0,3.423562527E0
2.697992708E0,6.781407833E0,5.821492195E0,3.457099199E0
2.699997135E0,6.743080139E0,5.835865021E0,3.452308416E0
2.702001562E0,6.728707314E0,5.864611149E0,3.500217915E0
2.704005989E0,6.714334488E0,5.893356800E0,3.543336630E0
2.706010417E0,6.666424751E0,5.917311668E0,3.572082281E0
2.708014844E0,6.733498096E0,5.946057320E0,3.619991779E0
2.710019271E0,6.699961662E0,5.984385014E0,3.687065125E0
2.712023698E0,6.728707314E0,6.013130665E0,3.725392818E0
2.714028125E0,6.771825790E0,6.061040401E0,3.749347687E0
2.716032552E0,6.829317093E0,6.094576836E0,3.782884359E0
2.718036979E0,6.819735527E0,6.128113747E0,3.806839228E0
2.720041406E0,6.795780659E0,6.180814266E0,3.758929491E0
2.722045833E0,6.819735527E0,6.247887611E0,3.782884359E0
2.724050260E0,6.834108353E0,6.281424046E0,3.730183840E0
2.726054687E0,6.853271961E0,6.324542999E0,3.696647167E0
2.728059114E0,6.886808872E0,6.358079433E0,3.696647167E0
2.730063542E0,6.992209911E0,6.391616344E0,3.667901516E0
2.732067969E0,7.092820168E0,6.415571213E0,3.667901516E0
2.734072396E0,7.131147385E0,6.473062515E0,3.677483320E0
2.736076823E0,7.193429947E0,6.497017384E0,3.672692299E0
2.738081250E0,7.203011990E0,6.544927120E0,3.672692299E0
2.740085677E0,7.231757641E0,6.573672771E0,3.643946648E0
2.742090104E0,7.322785854E0,6.588045597E0,3.639155626E0
2.744094531E0,7.389859200E0,6.592836380E0,3.615200996E0
2.746098958E0,7.389859200E0,6.612000465E0,3.567291260E0
2.748103385E0,7.404232025E0,6.597627640E0,3.519381762E0
2.750107812E0,7.418604851E0,6.597627640E0,3.481054068E0
2.752112239E0,7.404232025E0,6.612000465E0,3.418771744E0
2.754116667E0,7.409023285E0,6.616791248E0,3.394816875E0
2.756121094E0,7.380277157E0,6.621582031E0,3.380444050E0
2.758125521E0,7.356322765E0,6.616791248E0,3.370862007E0
2.760129948E0,7.346740723E0,6.631164074E0,3.366071224E0
2.762134375E0,7.298830986E0,6.645536900E0,3.375653028E0
2.764138802E0,7.274876118E0,6.635954857E0,3.375653028E0
2.766143229E0,7.255712509E0,6.645536900E0,3.366071224E0
2.768147656E0,7.217384815E0,6.631164074E0,3.385234833E0
2.770152083E0,7.217384815E0,6.616791248E0,3.404398680E0
2.772156510E0,7.203011990E0,6.616791248E0,3.409189701E0
2.774160937E0,7.145520687E0,6.631164074E0,3.413980722E0
2.776165364E0,7.140729427E0,6.631164074E0,3.428353548E0
2.778169792E0,7.097610950E0,6.621582031E0,3.423562527E0
2.780174219E0,7.064074039E0,6.616791248E0,3.423562527E0
2.782178646E0,7.040119648E0,6.612000465E0,3.404398680E0
2.784183073E0,7.030537605E0,6.650328159E0,3.423562527E0
2.786187500E0,7.016164780E0,6.655118942E0,3.413980722E0
2.788191927E0,7.001791954E0,6.640746117E0,3.437935352E0
2.790196354E0,6.997000694E0,6.635954857E0,3.471472263E0
2.792200781E0,6.977837086E0,6.635954857E0,3.485845089E0
2.794205208E0,6.997000694E0,6.621582031E0,3.495426893E0
2.796209635E0,7.025746346E0,6.588045597E0,3.500217915E0
2.798214062E0,7.049701214E0,6.583254337E0,3.509799719E0
2.800218489E0,7.068865299E0,6.573672771E0,3.533754587E0
2.802222917E0,7.102401733E0,6.540135860E0,3.543336630E0
2.804227396E0,7.131147385E0,6.554508686E0,3.533754587E0
2.806231875E0,7.164684296E0,6.530553818E0,3.524172783E0
2.808236354E0,7.164684296E0,6.549717903E0,3.500217915E0
2.810240833E0,7.188639164E0,6.535345078E0,3.485845089E0
2.812245312E0,7.207802773E0,6.535345078E0,3.490636110E0
2.814249792E0,7.226966858E0,6.530553818E0,3.461890221E0
2.816254271E0,7.222175598E0,6.506599426E0,3.452308416E0
2.818258750E0,7.255712509E0,6.516180992E0,3.433144569E0
2.820263229E0,7.265294552E0,6.482644558E0,3.433144569E0
2.822267708E0,7.294040203E0,6.482644558E0,3.404398680E0
2.824272187E0,7.298830986E0,6.458689690E0,3.390025854E0
2.826276667E0,7.298830986E0,6.453898907E0,3.342116356E0
2.828281146E0,7.284458160E0,6.477853298E0,3.289415836E0
2.830285625E0,7.279667377E0,6.468271732E0,3.279833794E0
2.832290104E0,7.265294552E0,6.477853298E0,3.246297121E0
2.834294583E0,7.246130466E0,6.511390209E0,3.231924295E0
2.836299062E0,7.241339684E0,6.501808167E0,3.212760448E0
2.838303542E0,7.236548424E0,6.492226601E0,3.188805819E0
2.840308021E0,7.212594032E0,6.511390209E0,3.169641972E0
2.842312500E0,7.207802773E0,6.506599426E0,3.169641972E0
2.844316979E0,7.193429947E0,6.482644558E0,3.155268908E0
2.846321458E0,7.169475079E0,6.506599426E0,3.150478125E0
2.848325937E0,7.164684296E0,6.477853298E0,3.207969427E0
2.850330417E0,7.131147385E0,6.453898907E0,3.193596601E0
2.852334896E0,7.111983776E0,6.449107647E0,3.212760448E0
2.854339375E0,7.097610950E0,6.434734821E0,3.236715317E0
2.856343854E0,7.088028908E0,6.401198387E0,3.260669947E0
2.858348333E0,7.083238125E0,6.391616344E0,3.275043011E0
2.860352812E0,7.064074039E0,6.382034302E0,3.298997641E0
2.862357292E0,7.030537605E0,6.353288651E0,3.318161488E0
2.864361771E0,6.987418652E0,6.334124565E0,3.298997641E0
2.866366250E0,6.968255043E0,6.324542999E0,3.337325335E0
2.868370729E0,6.949091434E0,6.271842480E0,3.346907377E0
2.870375208E0,6.925136566E0,6.262260437E0,3.375653028E0
2.872379687E0,6.929927349E0,6.247887611E0,3.385234833E0
2.874384167E0,6.910763741E0,6.195187092E0,3.404398680E0
2.876388646E0,6.901181698E0,6.171232224E0,3.433144569E0
2.878393125E0,6.905972481E0,6.123322487E0,3.452308416E0
2.880397604E0,6.896390915E0,6.089786053E0,3.490636110E0
2.882402083E0,6.896390915E0,6.075413227E0,3.509799719E0
2.884406510E0,6.891599655E0,6.032294273E0,3.509799719E0
2.886410937E0,6.891599655E0,6.017921448E0,3.524172783E0
2.888415364E0,6.901181698E0,5.998757839E0,3.495426893E0
2.890419792E0,6.905972481E0,5.984385014E0,3.471472263E0
2.892424219E0,6.944300175E0,5.989175797E0,3.452308416E0
2.894428646E0,6.949091434E0,5.993967056E0,3.433144569E0
2.896433073E0,6.958673000E0,5.989175797E0,3.413980722E0
2.898437500E0,6.987418652E0,5.974802971E0,3.380444050E0
2.900441927E0,7.016164780E0,5.979593754E0,3.356489182E0
2.902446354E0,7.064074039E0,5.965220928E0,3.361280203E0
2.904450781E0,7.107192993E0,5.946057320E0,3.346907377E0
2.906455208E0,7.155102253E0,5.946057320E0,3.289415836E0
2.908459635E0,7.207802773E0,5.941266537E0,3.255879164E0
2.910464062E0,7.241339684E0,5.946057320E0,3.217551470E0
2.912468489E0,7.274876118E0,5.917311668E0,3.193596601E0
2.914472917E0,7.274876118E0,5.926893234E0,3.169641972E0
2.916477344E0,7.313203812E0,5.946057320E0,3.140896082E0
2.918481771E0,7.332367897E0,5.941266537E0,3.102568388E0
2.920486198E0,7.346740723E0,5.955639362E0,3.083404541E0
2.922490625E0,7.370695591E0,5.965220928E0,3.054658890E0
2.924495052E0,7.365904331E0,5.970012188E0,3.040286064E0
2.926499479E0,7.399441242E0,5.974802971E0,3.016331196E0
2.928503906E0,7.418604851E0,5.974802971E0,3.006749392E0
2.930508333E0,7.452141762E0,5.950848103E0,2.978003502E0
2.932512760E0,7.471305370E0,5.946057320E0,2.958839655E0
2.934517187E0,7.514424324E0,5.931684494E0,2.954048872E0
2.936521614E0,7.538378716E0,5.912520409E0,2.930094004E0
2.938526042E0,7.533587933E0,5.898147583E0,2.920512199E0
2.940530469E0,7.547960758E0,5.888565540E0,2.920512199E0
2.942535156E0,7.547960758E0,5.874192715E0,2.915721178E0
2.944539844E0,7.533587933E0,5.864611149E0,2.915721178E0
2.946544427E0,7.543169975E0,5.874192715E0,2.891766310E0
2.948548854E0,7.519215107E0,5.864611149E0,2.910930157E0
2.950553281E0,7.490469456E0,5.888565540E0,2.891766310E0
2.952557708E0,7.495260239E0,5.907729626E0,2.896557331E0
2.954562135E0,7.495260239E0,5.907729626E0,2.915721178E0
2.956566562E0,7.471305370E0,5.946057320E0,2.915721178E0
2.958570989E0,7.485678196E0,5.960430145E0,2.886975288E0
2.960575417E0,7.500051498E0,5.950848103E0,2.906139135E0
2.962579844E0,7.509633064E0,5.955639362E0,2.882184505E0
2.964584271E0,7.538378716E0,5.950848103E0,2.882184505E0
2.966588698E0,7.562333584E0,5.955639362E0,2.901348352E0
2.968593125E0,7.571915627E0,5.946057320E0,2.896557331E0
2.970597552E0,7.581497669E0,5.946057320E0,2.863020658E0
2.972601979E0,7.591079712E0,5.960430145E0,2.858229637E0
2.974606406E0,7.595870495E0,5.974802971E0,2.824692965E0
2.976610833E0,7.586288452E0,5.946057320E0,2.800738096E0
2.978615260E0,7.576706409E0,5.955639362E0,2.791156292E0
2.980619687E0,7.581497669E0,5.936475277E0,2.805529118E0
2.982624114E0,7.571915627E0,5.922102451E0,2.781574249E0
2.984628542E0,7.581497669E0,5.888565540E0,2.800738096E0
2.986632969E0,7.581497669E0,5.874192715E0,2.791156292E0
2.988637396E0,7.624616146E0,5.826283455E0,2.781574249E0
2.990641823E0,7.610243320E0,5.807119370E0,2.781574249E0
2.992646250E0,7.600661278E0,5.787955761E0,2.767201424E0
2.994650677E0,7.567124844E0,5.735255241E0,2.757619619E0
2.996655104E0,7.581497669E0,5.696927547E0,2.757619619E0
2.998659531E0,7.571915627E0,5.644227028E0,2.752828598E0
3.000663958E0,7.547960758E0,5.605899334E0,2.781574249E0
3.002668385E0,7.514424324E0,5.557989597E0,2.752828598E0
3.004672812E0,7.504842281E0,5.490916252E0,2.752828598E0
3.006677239E0,7.471305370E0,5.447797775E0,2.743246794E0
3.008681667E0,7.461723804E0,5.380724430E0,2.757619619E0
3.010686094E0,7.447350979E0,5.342396736E0,2.776783466E0
3.012690521E0,7.389859200E0,5.289696217E0,2.733664751E0
3.014694948E0,7.341949940E0,5.232204437E0,2.748037577E0
3.016699375E0,7.322785854E0,5.203458786E0,2.724082947E0
3.018703802E0,7.289249420E0,5.189085960E0,2.728873730E0
3.020708229E0,7.231757641E0,5.160340309E0,2.728873730E0
3.022712656E0,7.236548424E0,5.141176701E0,2.709709883E0
3.024717083E0,7.207802773E0,5.107639790E0,2.728873730E0
3.026721510E0,7.183847904E0,5.107639790E0,2.714500904E0
3.028725937E0,7.145520687E0,5.088475704E0,2.733664751E0
3.030730364E0,7.068865299E0,5.098057747E0,2.700128078E0
3.032734792E0,6.997000694E0,5.102849007E0,2.680964231E0
3.034739219E0,7.016164780E0,5.088475704E0,2.657009363E0
3.036743646E0,7.040119648E0,5.098057747E0,2.628263712E0
3.038748073E0,6.992209911E0,5.088475704E0,2.623472691E0
3.040752500E0,6.968255043E0,5.093266964E0,2.580354214E0
3.042756927E0,6.934718132E0,5.107639790E0,2.537235498E0
3.044761354E0,6.896390915E0,5.117221832E0,2.527653694E0
3.046765781E0,6.853271961E0,5.145967484E0,2.474953175E0
3.048770208E0,6.810153484E0,5.136385441E0,2.474953175E0
3.050774635E0,6.829317093E0,5.150758266E0,2.479743958E0
3.052779062E0,6.848481178E0,5.150758266E0,2.489326000E0
3.054783489E0,6.834108353E0,5.136385441E0,2.494117022E0
3.056787917E0,6.810153484E0,5.155549526E0,2.498907804E0
3.058792344E0,6.786198616E0,5.165131092E0,2.474953175E0
3.060796771E0,6.695170403E0,5.198668003E0,2.460580111E0
3.062801198E0,6.776616573E0,5.198668003E0,2.455789328E0
3.064805625E0,6.762243748E0,5.179503918E0,2.498907804E0
3.066810052E0,6.719125271E0,5.145967484E0,2.537235498E0
3.068814479E0,6.714334488E0,5.107639790E0,2.518071651E0
3.070818958E0,6.790989876E0,5.040566444E0,2.565981388E0
3.072823437E0,6.767035007E0,4.992656708E0,2.613890886E0
3.074827917E0,6.743080139E0,4.944747448E0,2.642636538E0
3.076832396E0,6.714334488E0,4.925583363E0,2.637845755E0
3.078836875E0,6.704752445E0,4.887255669E0,2.657009363E0
3.080841354E0,6.786198616E0,4.820182323E0,2.671382427E0
3.082845833E0,6.747870922E0,4.801018715E0,2.714500904E0
3.084850312E0,6.690379620E0,4.791436672E0,2.728873730E0
3.086854792E0,6.647261143E0,4.724363327E0,2.752828598E0
3.088859271E0,6.604142189E0,4.705199242E0,2.714500904E0
3.090863750E0,6.551441669E0,4.676453590E0,2.800738096E0
3.092868229E0,6.556232929E0,4.671662807E0,2.810320139E0
3.094872708E0,6.498741150E0,4.614171028E0,2.848647833E0
3.096877187E0,6.469995499E0,4.590216637E0,2.848647833E0
3.098881667E0,6.465204716E0,4.590216637E0,2.920512199E0
3.100886146E0,6.441249847E0,4.551888943E0,2.968421698E0
3.102890625E0,6.402922153E0,4.561470509E0,2.963630676E0
3.104895104E0,6.383758068E0,4.566261768E0,2.997167349E0
3.106899583E0,6.307103157E0,4.590216637E0,2.987585545E0
3.108904062E0,6.254402637E0,4.628543854E0,2.968421698E0
3.110908542E0,6.278357029E0,4.638125896E0,2.992376566E0
3.112913021E0,6.278357029E0,4.666871548E0,3.054658890E0
3.114917500E0,6.283148289E0,4.671662807E0,3.059449911E0
3.116921979E0,6.316684723E0,4.662080765E0,3.064240932E0
3.118926458E0,6.355012417E0,4.686035633E0,3.092986584E0
3.120930937E0,6.340639591E0,4.719572067E0,3.107359409E0
3.122935417E0,6.331057549E0,4.724363327E0,3.088195562E0
3.124939896E0,6.355012417E0,4.719572067E0,3.092986584E0
3.126944375E0,6.402922153E0,4.695617676E0,3.116941452E0
3.128948854E0,6.455622673E0,4.705199242E0,3.097777605E0
3.130953333E0,6.436458588E0,4.733944893E0,3.092986584E0
3.132957812E0,6.426877022E0,4.781854630E0,3.025913239E0
3.134962292E0,6.493950367E0,4.820182323E0,3.025913239E0
3.136966771E0,6.498741150E0,4.853719234E0,3.021122217E0
3.138971250E0,6.537068844E0,4.896837711E0,3.045077085E0
3.140975729E0,6.565814495E0,4.920792580E0,3.054658890E0
3.142980208E0,6.556232929E0,4.968701839E0,3.040286064E0
3.144984687E0,6.676006794E0,4.973493099E0,3.006749392E0
3.146989167E0,6.584978580E0,5.030984402E0,2.987585545E0
3.148993646E0,6.561023712E0,5.040566444E0,2.939676046E0
3.150998125E0,6.589769363E0,5.074102879E0,2.901348352E0
3.153002552E0,6.628097057E0,5.117221832E0,2.891766310E0
3.155006979E0,6.685588360E0,5.155549526E0,2.920512199E0
3.157011406E0,6.723916054E0,5.213040829E0,2.944466829E0
3.159015833E0,6.723916054E0,5.270532131E0,2.877393484E0
3.161020260E0,6.719125271E0,5.351978779E0,2.815111160E0
3.163024687E0,6.733498096E0,5.395097256E0,2.781574249E0
3.165029114E0,6.738289356E0,5.428633690E0,2.757619619E0
3.167033542E0,6.790989876E0,5.457379818E0,2.805529118E0
3.169037969E0,6.786198616E0,5.505289078E0,2.786365271E0
3.171042396E0,6.786198616E0,5.514871120E0,2.748037577E0
3.173046823E0,6.834108353E0,5.538825989E0,2.724082947E0
3.175051250E0,6.867644787E0,5.562780857E0,2.719291925E0
3.177055677E0,6.867644787E0,5.605899334E0,2.700128078E0
3.179060104E0,6.819735527E0,5.644227028E0,2.666591406E0
3.181064531E0,6.800571442E0,5.687345505E0,2.580354214E0
3.183068958E0,6.776616573E0,5.735255241E0,2.522862673E0
3.185073385E0,6.790989876E0,5.720882416E0,2.508489847E0
3.187077812E0,6.752662182E0,5.754418850E0,2.494117022E0
3.189082239E0,6.814944267E0,5.749628067E0,2.518071651E0
3.191086667E0,6.858063221E0,5.759210110E0,2.537235498E0
3.193091094E0,6.891599655E0,5.759210110E0,2.508489847E0
3.195095521E0,6.977837086E0,5.773582935E0,2.494117022E0
3.197099948E0,6.891599655E0,5.797537804E0,2.479743958E0
3.199104375E0,6.915554523E0,5.816701412E0,2.427043438E0
3.201108802E0,6.934718132E0,5.835865021E0,2.403088808E0
3.203113229E0,6.939509392E0,5.864611149E0,2.393506765E0
3.205117656E0,6.934718132E0,5.878983974E0,2.326433420E0
3.207122083E0,6.910763741E0,5.922102451E0,2.297687769E0
3.209126510E0,6.968255043E0,5.955639362E0,2.240196228E0
3.211130133E0,6.953882217E0,6.017921448E0,2.240196228E0
3.213134560E0,6.944300175E0,6.075413227E0,2.182704687E0
3.215138988E0,6.963464260E0,6.142486572E0,2.149168015E0
3.217143415E0,6.987418652E0,6.199977875E0,2.082094669E0
3.219147842E0,6.997000694E0,6.243096828E0,2.086885452E0
3.221152269E0,7.016164780E0,6.257469654E0,2.067721605E0
3.223156696E0,7.044910431E0,6.295797348E0,2.048557758E0
3.225161123E0,7.078446865E0,6.348497868E0,2.019812107E0
3.227165550E0,7.174266338E0,6.391616344E0,2.005439281E0
3.229169977E0,7.193429947E0,6.439525604E0,1.971902609E0
3.231171019E0,7.188639164E0,6.525763035E0,1.947947860E0
3.233172060E0,7.121565819E0,6.616791248E0,1.890456319E0
3.235173519E0,7.126356602E0,6.698237419E0,1.852128625E0
3.237175498E0,7.203011990E0,6.741356373E0,1.856919646E0
3.239178050E0,7.250921726E0,6.784474850E0,1.852128625E0
3.241181227E0,7.337158680E0,6.832384109E0,1.885665417E0
3.243185081E0,7.404232025E0,6.837175369E0,1.923992991E0
3.245189613E0,7.428186893E0,6.851548195E0,1.938365936E0
3.247194769E0,7.461723804E0,6.861130238E0,1.909620166E0
3.249200498E0,7.490469456E0,6.861130238E0,1.919202089E0
3.251206748E0,7.504842281E0,6.904248714E0,1.885665417E0
3.253213415E0,7.490469456E0,6.909039497E0,1.909620166E0
3.255220394E0,7.524005890E0,6.894666672E0,1.904829144E0
3.257227581E0,7.595870495E0,6.913830757E0,1.957529783E0
3.259234873E0,7.624616146E0,6.918621540E0,2.010230303E0
3.261241956E0,7.576706409E0,6.961740017E0,2.043766975E0
3.263246383E0,7.610243320E0,6.966531277E0,2.010230303E0
3.265250810E0,7.634198189E0,6.990485668E0,2.077303648E0
3.267255238E0,7.682107449E0,7.009649754E0,2.139585972E0
3.269259665E0,7.706062317E0,7.052768230E0,2.192286491E0
3.271264092E0,7.691689491E0,7.076723099E0,2.197077513E0
3.273268519E0,7.662943840E0,7.115050793E0,2.225823164E0
3.275272946E0,7.638988972E0,7.167751312E0,2.225823164E0
3.277277373E0,7.677316666E0,7.167751312E0,2.283314705E0
3.279281800E0,7.677316666E0,7.172542095E0,2.278523922E0
3.281286227E0,7.643780231E0,7.230033875E0,2.225823164E0
3.283290654E0,7.672525883E0,7.225242615E0,2.206659555E0
3.285295081E0,7.710853577E0,7.258779526E0,2.244987011E0
3.287299508E0,7.696480751E0,7.258779526E0,2.235405207E0
3.289303935E0,7.658153057E0,7.263570309E0,2.264151096E0
3.291308363E0,7.658153057E0,7.253988743E0,2.268941879E0
3.293312790E0,7.615034103E0,7.225242615E0,2.278523922E0
3.295317217E0,7.552752018E0,7.253988743E0,2.288105726E0
3.297321644E0,7.533587933E0,7.277943134E0,2.240196228E0
3.299326071E0,7.519215107E0,7.321062088E0,2.244987011E0
3.301330498E0,7.456932545E0,7.378553391E0,2.225823164E0
3.303334925E0,7.413814068E0,7.364180565E0,2.177913666E0
3.305339352E0,7.399441242E0,7.330643654E0,2.192286491E0
3.307343779E0,7.375486374E0,7.335434914E0,2.192286491E0
3.309348206E0,7.308413029E0,7.349807739E0,2.201868534E0
3.311352633E0,7.255712509E0,7.378553391E0,2.197077513E0
3.313357060E0,7.183847904E0,7.388135433E0,2.221032381E0
3.315361488E0,7.121565819E0,7.392926216E0,2.244987011E0
3.317365915E0,7.059283257E0,7.421671867E0,2.225823164E0
3.319370342E0,6.977837086E0,7.464790821E0,2.149168015E0
3.321374769E0,6.968255043E0,7.483954430E0,2.082094669E0
3.323379196E0,6.925136566E0,7.536654949E0,2.096467495E0
3.325383623E0,6.853271961E0,7.560609818E0,2.221032381E0
3.327388050E0,6.800571442E0,7.594146729E0,2.177913666E0
3.329392477E0,6.719125271E0,7.656428814E0,2.230614185E0
3.331396904E0,6.690379620E0,7.656428814E0,2.153958797E0
3.333401331E0,6.671215534E0,7.718711376E0,2.144376993E0
3.335405758E0,6.647261143E0,7.761829853E0,2.096467495E0
3.337410185E0,6.623306274E0,7.838485241E0,2.086885452E0
3.339414613E0,6.623306274E0,7.910349846E0,2.043766975E0
3.341419040E0,6.589769363E0,7.991796017E0,2.015021086E0
3.343423467E0,6.604142189E0,8.049287796E0,1.947947860E0
3.345427894E0,6.589769363E0,8.135524750E0,1.904829144E0
3.347432321E0,6.618515015E0,8.197807312E0,1.895247340E0
3.349436748E0,6.637679100E0,8.245717049E0,1.895247340E0
3.351441175E0,6.685588360E0,8.255298615E0,1.861710548E0
3.353445602E0,6.690379620E0,8.221761703E0,1.794637203E0
3.355450029E0,6.733498096E0,8.216970444E0,1.727563739E0
3.357454456E0,6.786198616E0,8.221761703E0,1.670072317E0
3.359458883E0,6.853271961E0,8.212180138E0,1.636535645E0
3.361463310E0,6.901181698E0,8.178643227E0,1.612580776E0
3.363467738E0,6.949091434E0,8.164270401E0,1.569462180E0
3.365472165E0,7.006582737E0,8.121151924E0,1.583835125E0
3.367476592E0,7.044910431E0,8.082823753E0,1.540716410E0
3.369481019E0,7.092820168E0,8.044496536E0,1.516761661E0
3.371485446E0,7.121565819E0,8.025332451E0,1.555089355E0
3.373489873E0,7.150311470E0,7.972631931E0,1.579044104E0
3.375494300E0,7.188639164E0,7.948677540E0,1.612580776E0
3.377498727E0,7.193429947E0,7.929513454E0,1.665281296E0
3.379503154E0,7.188639164E0,7.924722672E0,1.708400011E0
3.381507633E0,7.198221207E0,7.919931412E0,1.746727586E0
3.383512113E0,7.183847904E0,7.895977020E0,1.799428105E0
3.385516592E0,7.155102253E0,7.891185760E0,1.847337723E0
3.387521071E0,7.126356602E0,7.905558586E0,1.895247340E0
3.389525550E0,7.078446865E0,7.915140629E0,1.933574915E0
3.391530029E0,7.025746346E0,7.895977020E0,1.976693511E0
3.393534508E0,6.982627869E0,7.910349846E0,2.034184933E0
3.395538988E0,6.920345306E0,7.915140629E0,2.106049299E0
3.397543467E0,6.853271961E0,7.929513454E0,2.115631342E0
3.399547946E0,6.800571442E0,7.939095497E0,2.144376993E0
3.401552425E0,6.733498096E0,7.943886280E0,2.177913666E0
3.403556904E0,6.652051926E0,7.939095497E0,2.221032381E0
3.405561383E0,6.589769363E0,7.924722672E0,2.288105726E0
3.407565863E0,6.522696018E0,7.924722672E0,2.264151096E0
3.409570342E0,6.431667805E0,7.915140629E0,2.316851616E0
3.411574821E0,6.388549328E0,7.910349846E0,2.364761114E0
3.413579300E0,6.321475983E0,7.910349846E0,2.398297787E0
3.415583779E0,6.235238552E0,7.910349846E0,2.427043438E0
3.417588258E0,6.187329292E0,7.905558586E0,2.479743958E0
3.419592738E0,6.134628296E0,7.929513454E0,2.484534979E0
3.421597217E0,6.091509819E0,7.939095497E0,2.518071651E0
3.423601696E0,6.062764168E0,7.943886280E0,2.542026520E0
3.425606175E0,6.038809299E0,7.934304237E0,2.575563192E0
3.427610654E0,6.000481606E0,7.991796017E0,2.589936018E0
3.429615133E0,5.971735954E0,8.010959625E0,2.594727039E0
3.431619613E0,5.966945171E0,8.058869362E0,2.618681908E0
3.433624092E0,5.947781086E0,8.092406273E0,2.647427559E0
3.435628571E0,5.928617477E0,8.130733490E0,2.676173210E0
3.437633050E0,5.909453392E0,8.173851967E0,2.690546274E0
3.439637529E0,5.875916958E0,8.207388878E0,2.714500904E0
3.441642008E0,5.837589264E0,8.240925789E0,2.700128078E0
3.443646488E0,5.828007221E0,8.298417091E0,2.719291925E0
3.445650967E0,5.789679527E0,8.322372437E0,2.709709883E0
3.447655446E0,5.741770267E0,8.331954002E0,2.704919100E0
3.449659925E0,5.708233356E0,8.351118088E0,2.724082947E0
3.451664404E0,5.684278488E0,8.370281219E0,2.743246794E0
3.453668883E0,5.631577969E0,8.360699654E0,2.700128078E0
3.455673363E0,5.621995926E0,8.303208351E0,2.695337057E0
3.457677842E0,5.588459492E0,8.284044266E0,2.671382427E0
3.459682321E0,5.526176929E0,8.260089874E0,2.685755253E0
3.461686800E0,5.507013321E0,8.202597618E0,2.652218580E0
3.463691279E0,5.435148716E0,8.169061661E0,2.637845755E0
3.465695706E0,5.353702545E0,8.154688835E0,2.613890886E0
3.467700133E0,5.296211243E0,8.078033447E0,2.609099865E0
3.469704560E0,5.205183029E0,8.054079056E0,2.556399345E0
3.471708988E0,5.138109684E0,8.020542145E0,2.503698826E0
3.473713415E0,5.071035862E0,7.977423191E0,2.498907804E0
3.475717842E0,4.994380951E0,7.958259106E0,2.474953175E0
3.477722269E0,4.903352737E0,7.900767803E0,2.489326000E0
3.479726696E0,4.826697350E0,7.857649326E0,2.494117022E0
3.481731123E0,4.750041962E0,7.819321632E0,2.518071651E0
3.483735550E0,4.692550659E0,7.790575504E0,2.556399345E0
3.485739977E0,4.635058880E0,7.814530373E0,2.561190367E0
3.487744404E0,4.567985535E0,7.824112415E0,2.537235498E0
3.489748831E0,4.491330147E0,7.852858067E0,2.546817541E0
3.491753258E0,4.453002453E0,7.862440109E0,2.551608324E0
3.493757685E0,4.419466019E0,7.872022152E0,2.551608324E0
3.495762113E0,4.371556282E0,7.881603718E0,2.628263712E0
3.497766540E0,4.338019848E0,7.939095497E0,2.680964231E0
3.499770967E0,4.314064980E0,7.958259106E0,2.704919100E0
3.501775394E0,4.280528069E0,7.991796017E0,2.719291925E0
3.503779821E0,4.266155243E0,8.030123711E0,2.700128078E0
3.505784248E0,4.261364460E0,8.078033447E0,2.733664751E0
3.507788675E0,4.242200375E0,8.101987839E0,2.700128078E0
3.509793102E0,4.227827549E0,8.121151924E0,2.767201424E0
3.511797529E0,4.232618332E0,8.121151924E0,2.800738096E0
3.513801956E0,4.208663940E0,8.164270401E0,2.738455772E0
3.515806383E0,4.179917812E0,8.188224792E0,2.762410402E0
3.517810810E0,4.160754204E0,8.188224792E0,2.743246794E0
3.519815238E0,4.132008553E0,8.250507355E0,2.680964231E0
3.521819665E0,4.117635727E0,8.260089874E0,2.642636538E0
3.523824092E0,4.132008553E0,8.269671440E0,2.700128078E0
3.525828519E0,4.117635727E0,8.298417091E0,2.695337057E0
3.527832946E0,4.088890076E0,8.288835526E0,2.704919100E0
3.529837373E0,4.074516773E0,8.312789917E0,2.738455772E0
3.531841800E0,4.074516773E0,8.322372437E0,2.757619619E0
3.533846227E0,4.074516773E0,8.331954002E0,2.757619619E0
3.535850654E0,4.127217293E0,8.317581177E0,2.771992445E0
3.537855081E0,4.127217293E0,8.331954002E0,2.795947313E0
3.539859508E0,4.170336246E0,8.322372437E0,2.853438616E0
3.541863935E0,4.208663940E0,8.317581177E0,2.829483986E0
3.543868363E0,4.251782417E0,8.293625832E0,2.901348352E0
3.545872790E0,4.270946026E0,8.288835526E0,2.910930157E0
3.547877217E0,4.299692154E0,8.284044266E0,2.915721178E0
3.549881644E0,4.333228588E0,8.274462700E0,2.939676046E0
3.551886071E0,4.338019848E0,8.269671440E0,2.982794523E0
3.553890498E0,4.361974239E0,8.303208351E0,3.011540174E0
3.555894925E0,4.338019848E0,8.307998657E0,3.045077085E0
3.557899352E0,4.314064980E0,8.322372437E0,3.001958370E0
3.559903779E0,4.304482937E0,8.331954002E0,2.997167349E0
3.561908206E0,4.290110111E0,8.346326828E0,3.030704021E0
3.563912633E0,4.280528069E0,8.341535568E0,3.035495043E0
3.565917060E0,4.237409592E0,8.336745262E0,3.073822737E0
3.567921488E0,4.208663940E0,8.375072479E0,3.078613758E0
3.569925915E0,4.170336246E0,8.394236565E0,3.054658890E0
3.571930342E0,4.155963421E0,8.379863739E0,3.083404541E0
3.573934769E0,4.146381378E0,8.360699654E0,3.045077085E0
3.575939196E0,4.112844467E0,8.360699654E0,3.025913239E0
3.577943623E0,4.098471642E0,8.351118088E0,3.035495043E0
3.579948050E0,4.069725990E0,8.394236565E0,2.939676046E0
3.581952477E0,4.050562382E0,8.394236565E0,2.906139135E0
3.583956956E0,3.988279819E0,8.432563782E0,2.858229637E0
3.585961435E0,3.935579300E0,8.432563782E0,2.839065790E0
3.587965915E0,3.854132891E0,8.446936607E0,2.800738096E0
3.589970394E0,3.787059546E0,8.504427910E0,2.752828598E0
3.591974873E0,3.724777222E0,8.523591995E0,2.728873730E0
3.593979352E0,3.648121834E0,8.566710472E0,2.700128078E0
3.595983831E0,3.585839272E0,8.566710472E0,2.671382427E0
3.597988310E0,3.547511816E0,8.533174515E0,2.704919100E0
3.599992790E0,3.475647449E0,8.547547340E0,2.657009363E0
3.601997269E0,3.389410019E0,8.533174515E0,2.666591406E0
3.604001748E0,3.355873346E0,8.518801689E0,2.690546274E0
3.606006227E0,3.269636154E0,8.552337646E0,2.618681908E0
3.608010706E0,3.164235115E0,8.585874557E0,2.589936018E0
3.610015185E0,3.082788944E0,8.628993034E0,2.594727039E0
3.612019665E0,2.963014841E0,8.691275597E0,2.508489847E0
3.614024144E0,2.895941496E0,8.729603767E0,2.450998306E0
3.616028623E0,2.852823019E0,8.763139725E0,2.522862673E0
3.618033102E0,2.795331478E0,8.839795113E0,2.479743958E0
3.620037581E0,2.733048916E0,8.873332024E0,2.489326000E0
3.622042060E0,2.689930439E0,8.873332024E0,2.489326000E0
3.624046540E0,2.613275051E0,8.906868935E0,2.503698826E0
3.626051019E0,2.570156336E0,8.906868935E0,2.527653694E0
3.628055498E0,2.512665033E0,8.897286415E0,2.561190367E0
3.630059977E0,2.503082991E0,8.892496109E0,2.613890886E0
3.632064456E0,2.469546318E0,8.878123283E0,2.676173210E0
3.634068935E0,2.440800667E0,8.873332024E0,2.704919100E0
3.636073415E0,2.378518105E0,8.882913589E0,2.733664751E0
3.638077894E0,2.335399628E0,8.863750458E0,2.819901943E0
3.640082373E0,2.277908087E0,8.849377632E0,2.901348352E0
3.642086852E0,2.244371414E0,8.858959198E0,2.944466829E0
3.644091331E0,2.167716026E0,8.868540764E0,3.006749392E0
3.646095810E0,2.105433702E0,8.906868935E0,3.073822737E0
3.648100290E0,2.043151140E0,8.940405846E0,3.155268908E0
3.650104769E0,1.980868697E0,9.017060280E0,3.179223776E0
3.652109248E0,1.913795352E0,9.084134102E0,3.246297121E0
3.654113727E0,1.861094832E0,9.108088493E0,3.308579683E0
3.656118206E0,1.822767138E0,9.103298187E0,3.361280203E0
3.658122685E0,1.750902772E0,9.160789490E0,3.413980722E0
3.660127165E0,1.693411350E0,9.218280792E0,3.495426893E0
3.662131644E0,1.645501733E0,9.266190529E0,3.538545609E0
3.664136123E0,1.549682617E0,9.347637177E0,3.524172783E0
3.666140602E0,1.511354923E0,9.486574173E0,3.567291260E0
3.668145029E0,1.458654404E0,9.529693604E0,3.581664085E0
3.670149456E0,1.405953884E0,9.534483910E0,3.572082281E0
3.672153883E0,1.362835288E0,9.587184906E0,3.552918434E0
3.674158310E0,1.310134768E0,9.620721817E0,3.572082281E0
3.676162738E0,1.257434249E0,9.654257774E0,3.629573822E0
3.678167165E0,1.228688478E0,9.687794685E0,3.600827932E0
3.680171592E0,1.161615014E0,9.764450073E0,3.610409975E0
3.682176019E0,1.161615014E0,9.764450073E0,3.581664085E0
3.684180446E0,1.113705516E0,9.764450073E0,3.552918434E0
3.686184873E0,1.089750767E0,9.769241333E0,3.533754587E0
3.688189300E0,1.037050247E0,9.802777290E0,3.524172783E0
3.690193727E0,1.037050247E0,9.778822899E0,3.514590740E0
3.692198154E0,1.003513575E0,9.750077248E0,3.524172783E0
3.694202581E0,9.699767828E-1,9.759658813E0,3.476263046E0
3.696207008E0,9.795587063E-1,9.769241333E0,3.428353548E0
3.698211435E0,9.747677445E-1,9.740495682E0,3.490636110E0
3.700215863E0,1.008304477E0,9.678213120E0,3.442726374E0
3.702220290E0,9.651858211E-1,9.687794685E0,3.457099199E0
3.704224717E0,9.939315915E-1,9.625512123E0,3.442726374E0
3.706229144E0,1.037050247E0,9.582393646E0,3.423562527E0
3.708233571E0,1.051423073E0,9.515319824E0,3.399607897E0
3.710237998E0,1.104123592E0,9.462619781E0,3.437935352E0
3.712242425E0,1.108914495E0,9.400337219E0,3.433144569E0
3.714246852E0,1.142451286E0,9.352427483E0,3.476263046E0
3.716251279E0,1.161615014E0,9.270981789E0,3.500217915E0
3.718255706E0,1.166406035E0,9.189535141E0,3.505008936E0
3.720260133E0,1.180778861E0,9.151207924E0,3.548127413E0
3.722264560E0,1.209524632E0,9.074552536E0,3.548127413E0
3.724268988E0,1.175987959E0,9.064970016E0,3.533754587E0
3.726273415E0,1.190360785E0,9.031434059E0,3.562500238E0
3.728277842E0,1.233479381E0,8.978733063E0,3.557709455E0
3.730282269E0,1.233479381E0,8.964360237E0,3.528963566E0
3.732286696E0,1.238270402E0,8.935614586E0,3.509799719E0
3.734291123E0,1.252643228E0,8.921241760E0,3.514590740E0
3.736295550E0,1.290970922E0,8.935614586E0,3.562500238E0
3.738299977E0,1.300552845E0,8.926033020E0,3.581664085E0
3.740304404E0,1.319716692E0,8.902077675E0,3.600827932E0
3.742308831E0,1.305343747E0,8.873332024E0,3.605618954E0
3.744313258E0,1.305343747E0,8.878123283E0,3.576873302E0
3.746317685E0,1.310134768E0,8.844586372E0,3.610409975E0
3.748322113E0,1.334089518E0,8.849377632E0,3.576873302E0
3.750326540E0,1.358044267E0,8.835004807E0,3.591246128E0
3.752330967E0,1.358044267E0,8.858959198E0,3.581664085E0
3.754335394E0,1.329298615E0,8.878123283E0,3.586455107E0
3.756339821E0,1.353253365E0,8.887704849E0,3.600827932E0
3.758344248E0,1.348462343E0,8.868540764E0,3.591246128E0
3.760348675E0,1.353253365E0,8.849377632E0,3.648737669E0
3.762353102E0,1.338880539E0,8.787095070E0,3.629573822E0
3.764357529E0,1.381999135E0,8.720021248E0,3.643946648E0
3.766361956E0,1.381999135E0,8.686484337E0,3.701438189E0
3.768366383E0,1.377208114E0,8.619411469E0,3.734974861E0
3.770370810E0,1.381999135E0,8.552337646E0,3.734974861E0
3.772375238E0,1.338880539E0,8.585874557E0,3.715811014E0
3.774379665E0,1.334089518E0,8.595456123E0,3.744556665E0
3.776384092E0,1.367626190E0,8.547547340E0,3.773302555E0
3.778388519E0,1.358044267E0,8.537964821E0,3.802048206E0
3.780392946E0,1.324507594E0,8.523591995E0,3.826003075E0
3.782397373E0,1.300552845E0,8.494846344E0,3.854748726E0
3.784401852E0,1.295761824E0,8.418190956E0,3.878703594E0
3.786406331E0,1.267016172E0,8.355908394E0,3.955358744E0
3.788410810E0,1.214315653E0,8.355908394E0,3.955358744E0
3.790415290E0,1.166406035E0,8.360699654E0,3.988895416E0
3.792419769E0,1.123287439E0,8.312789917E0,4.032013893E0
3.794424248E0,1.075377822E0,8.298417091E0,4.065550804E0
3.796428727E0,1.027468324E0,8.279253006E0,4.084714413E0
3.798433206E0,9.603948593E-1,8.264880180E0,4.108669281E0
3.800437685E0,9.364401102E-1,8.236134529E0,4.137414932E0
3.802442165E0,8.549938202E-1,8.260089874E0,4.209279537E0
3.804446644E0,7.927113771E-1,8.236134529E0,4.194906712E0
3.806451123E0,7.160560489E-1,8.245717049E0,4.218861580E0
3.808455602E0,6.394007206E-1,8.236134529E0,4.223652363E0
3.810460081E0,5.627454519E-1,8.226552963E0,4.257189274E0
3.812464560E0,4.765082002E-1,8.226552963E0,4.252398014E0
3.814469040E0,4.046438932E-1,8.245717049E0,4.233234406E0
3.816473519E0,3.231976032E-1,8.279253006E0,4.190115452E0
3.818477998E0,2.752880454E-1,8.303208351E0,4.151787758E0
3.820482477E0,1.986327171E-1,8.293625832E0,4.151787758E0
3.822486956E0,1.842598468E-1,8.279253006E0,4.132624149E0
3.824491435E0,1.123954803E-1,8.355908394E0,4.084714413E0
3.826495915E0,8.844070137E-2,8.394236565E0,4.041595936E0
3.828500394E0,-1.216939837E-2,8.475682259E0,4.012850285E0
3.830504873E0,-6.486992538E-2,8.542756081E0,3.964940786E0
3.832509352E0,-1.271523684E-1,8.595456123E0,3.907449245E0
3.834513831E0,-1.654800326E-1,8.676902771E0,3.845166922E0
3.836518310E0,-2.133895904E-1,8.734394073E0,3.778093338E0
3.838522790E0,-2.325534374E-1,8.734394073E0,3.701438189E0
3.840527269E0,-2.133895904E-1,8.748766899E0,3.663110495E0
3.842531748E0,-2.517172694E-1,8.835004807E0,3.653528452E0
3.844536227E0,-2.421353310E-1,8.911659241E0,3.600827932E0
3.846540706E0,-2.229715139E-1,8.964360237E0,3.567291260E0
3.848545185E0,-2.038076967E-1,8.973941803E0,3.533754587E0
3.850549665E0,-1.654800326E-1,8.935614586E0,3.442726374E0
3.852554144E0,-1.894348115E-1,8.945196152E0,3.404398680E0
3.854558623E0,-1.558981091E-1,8.954778671E0,3.356489182E0
3.856563102E0,-1.846438497E-1,8.959568977E0,3.284624815E0
3.858567581E0,-2.038076967E-1,9.021851540E0,3.222342491E0
3.860572060E0,-1.511071622E-1,9.045806885E0,3.198387623E0
3.862576540E0,-1.463162005E-1,9.127252579E0,3.198387623E0
3.864581019E0,-1.127794981E-1,9.136835098E0,3.150478125E0
3.866585498E0,-4.570610076E-2,9.189535141E0,3.121732235E0
3.868589977E0,-3.612418473E-2,9.175162315E0,3.126523256E0
3.870594404E0,-7.378444076E-3,9.179953575E0,3.092986584E0
3.872598831E0,-3.612418473E-2,9.275772095E0,3.069031715E0
3.874603258E0,2.136730030E-2,9.342845917E0,3.040286064E0
3.876607685E0,2.615825646E-2,9.385964394E0,2.963630676E0
3.878612113E0,1.657634228E-2,9.381173134E0,2.920512199E0
3.880616540E0,5.011304095E-2,9.385964394E0,2.906139135E0
3.882620967E0,1.076045260E-1,9.520111084E0,2.925302982E0
3.884625394E0,1.028135717E-1,9.606348038E0,2.843856812E0
3.886629821E0,1.842598468E-1,9.644676208E0,2.839065790E0
3.888634248E0,2.082146257E-1,9.659049034E0,2.805529118E0
3.890638675E0,2.273784578E-1,9.654257774E0,2.733664751E0
3.892643102E0,2.417513281E-1,9.721331596E0,2.776783466E0
3.894647529E0,1.890507936E-1,9.764450073E0,2.805529118E0
3.896651956E0,1.555140913E-1,9.836314201E0,2.690546274E0
3.898656383E0,1.698869765E-1,9.845896721E0,2.661800385E0
3.900660810E0,2.369603664E-1,9.855478287E0,2.642636538E0
3.902665238E0,2.657061219E-1,9.879432678E0,2.609099865E0
3.904669665E0,2.657061219E-1,9.946506500E0,2.599518061E0
3.906674092E0,3.327795267E-1,9.956088066E0,2.570772171E0
3.908678519E0,3.231976032E-1,9.980043411E0,2.561190367E0
3.910682946E0,3.567342758E-1,9.984833717E0,2.542026520E0
3.912687373E0,3.615252376E-1,9.951297760E0,2.561190367E0
3.914691800E0,3.615252376E-1,9.946506500E0,2.604308844E0
3.916696227E0,3.040337563E-1,9.975252151E0,2.613890886E0
3.918700654E0,2.992427945E-1,9.975252151E0,2.589936018E0
3.920705081E0,2.896609008E-1,9.975252151E0,2.561190367E0
3.922709508E0,3.231976032E-1,9.965670586E0,2.561190367E0
3.924713935E0,3.327795267E-1,9.980043411E0,2.474953175E0
3.926718363E0,3.184066415E-1,9.994416237E0,2.522862673E0
3.928722790E0,2.992427945E-1,9.965670586E0,2.589936018E0
3.930727217E0,3.136156797E-1,9.879432678E0,2.685755253E0
3.932731644E0,2.896609008E-1,9.841105461E0,2.719291925E0
3.934736071E0,2.513332367E-1,9.774031639E0,2.690546274E0
3.936740498E0,2.273784578E-1,9.735704422E0,2.719291925E0
3.938744925E0,1.842598468E-1,9.721331596E0,2.795947313E0
3.940749352E0,1.603050530E-1,9.711749077E0,2.886975288E0
3.942753779E0,1.219773963E-1,9.692585945E0,2.891766310E0
3.944758206E0,1.076045260E-1,9.644676208E0,2.934885025E0
3.946762633E0,6.448591501E-2,9.654257774E0,2.987585545E0
3.948767060E0,-2.587486058E-3,9.644676208E0,2.987585545E0
3.950771488E0,-6.007897109E-2,9.654257774E0,3.054658890E0
3.952775915E0,-1.127794981E-1,9.687794685E0,2.968421698E0
3.954780342E0,-1.271523684E-1,9.706958771E0,2.930094004E0
3.956784769E0,-1.271523684E-1,9.702167511E0,2.906139135E0
3.958789196E0,-1.846438497E-1,9.716540337E0,3.035495043E0
3.960793623E0,-2.325534374E-1,9.702167511E0,3.078613758E0
3.962798050E0,-3.044177890E-1,9.750077248E0,3.088195562E0
3.964802477E0,-3.858640790E-1,9.764450073E0,3.040286064E0
3.966806904E0,-4.337736368E-1,9.788404465E0,3.021122217E0
3.968811331E0,-4.912651181E-1,9.812359810E0,3.102568388E0
3.970815758E0,-5.200108886E-1,9.812359810E0,3.126523256E0
3.972820185E0,-6.014571190E-1,9.850687027E0,3.040286064E0
3.974824613E0,-6.733214855E-1,9.912969589E0,2.958839655E0
3.976829040E0,-7.260220051E-1,9.912969589E0,3.045077085E0
3.978833467E0,-7.499768138E-1,9.898596764E0,3.035495043E0
3.980837894E0,-7.835134864E-1,9.936924934E0,2.944466829E0
3.982842321E0,-8.937055469E-1,1.000399780E1,2.925302982E0
3.984846748E0,-9.080783725E-1,1.005669880E1,2.891766310E0
3.986851227E0,-9.416151047E-1,1.013335419E1,2.886975288E0
3.988855706E0,-9.080783725E-1,1.005669880E1,2.843856812E0
3.990860185E0,-8.793326616E-1,1.000399780E1,2.839065790E0
3.992864665E0,-9.272422194E-1,1.000878906E1,2.891766310E0
3.994869144E0,-9.511970282E-1,9.999206543E0,2.805529118E0
3.996873623E0,-1.003897548E0,9.984833717E0,2.805529118E0
3.998878102E0,-9.943156242E-1,9.989624977E0,2.800738096E0
4.000882581E0,-1.042225242E0,9.994416237E0,2.752828598E0
4.002887060E0,-1.051807046E0,1.000399780E1,2.647427559E0
4.004891540E0,-1.051807046E0,1.001837063E1,2.585144997E0
4.006896019E0,-1.023061395E0,9.975252151E0,2.618681908E0
4.008900498E0,-1.023061395E0,9.965670586E0,2.570772171E0
4.010904977E0,-1.023061395E0,9.975252151E0,2.551608324E0
4.012909456E0,-1.008688450E0,9.975252151E0,2.532444477E0
4.014913935E0,-1.008688450E0,1.001837063E1,2.575563192E0
4.016918415E0,-9.464060068E-1,9.970460892E0,2.522862673E0
4.018922894E0,-9.559879303E-1,9.927342415E0,2.580354214E0
4.020927373E0,-9.176602960E-1,9.826732635E0,2.537235498E0
4.022931852E0,-8.793326616E-1,9.730913162E0,2.537235498E0
4.024936331E0,-9.080783725E-1,9.697376251E0,2.546817541E0
4.026940810E0,-8.745416999E-1,9.654257774E0,2.513280869E0
4.028945290E0,-8.505868912E-1,9.577602386E0,2.537235498E0
4.030949769E0,-7.978863716E-1,9.500946999E0,2.470162153E0
4.032954248E0,-7.451858521E-1,9.433874130E0,2.441416502E0
4.034958727E0,-7.116491795E-1,9.395545959E0,2.494117022E0
4.036963206E0,-6.829034090E-1,9.342845917E0,2.494117022E0
4.038967685E0,-6.445757747E-1,9.304517746E0,2.537235498E0
4.040972165E0,-6.397848129E-1,9.270981789E0,2.479743958E0
4.042976644E0,-6.206209660E-1,9.266190529E0,2.518071651E0
4.044981123E0,-5.918751955E-1,9.275772095E0,2.537235498E0
4.046985602E0,-5.727114081E-1,9.247026443E0,2.508489847E0
4.048990081E0,-5.631294847E-1,9.261399269E0,2.513280869E0
4.050994560E0,-5.679204464E-1,9.304517746E0,2.518071651E0
4.052999040E0,-5.391746759E-1,9.318890572E0,2.407879591E0
4.055003519E0,-4.864741564E-1,9.318890572E0,2.393506765E0
4.057007998E0,-4.625194073E-1,9.352427483E0,2.407879591E0
4.059012477E0,-4.481465220E-1,9.371591568E0,2.398297787E0
4.061016956E0,-4.241917133E-1,9.395545959E0,2.321642399E0
4.063021435E0,-4.146097898E-1,9.438665390E0,2.268941879E0
4.065025915E0,-4.002369046E-1,9.491365433E0,2.259360075E0
4.067030394E0,-4.002369046E-1,9.544066429E0,2.264151096E0
4.069034873E0,-3.667002320E-1,9.544066429E0,2.264151096E0
4.071039352E0,-3.475363851E-1,9.568020821E0,2.177913666E0
4.073043779E0,-3.427454233E-1,9.591975212E0,2.120422125E0
4.075048206E0,-3.044177890E-1,9.587184906E0,2.201868534E0
4.077052633E0,-2.852539420E-1,9.591975212E0,2.149168015E0
4.079057060E0,-2.756720185E-1,9.582393646E0,2.168331861E0
4.081061488E0,-2.469262928E-1,9.587184906E0,2.091676474E0
4.083065915E0,-2.421353310E-1,9.582393646E0,2.082094669E0
4.085070342E0,-2.085986286E-1,9.577602386E0,2.053348780E0
4.087074769E0,-1.894348115E-1,9.620721817E0,2.043766975E0
4.089079196E0,-1.511071622E-1,9.649467468E0,2.048557758E0
4.091083623E0,-1.031975895E-1,9.654257774E0,2.010230303E0
4.093088050E0,-6.007897109E-2,9.659049034E0,2.019812107E0
4.095092477E0,-3.133323044E-2,9.663840294E0,2.029393911E0
4.097096904E0,-1.696036011E-2,9.663840294E0,2.058139801E0
4.099101331E0,6.994426250E-3,9.639884949E0,2.096467495E0
4.101105758E0,3.094921261E-2,9.615930557E0,2.077303648E0
4.103110185E0,8.844070137E-2,9.606348038E0,2.096467495E0
4.105114613E0,1.076045260E-1,9.615930557E0,2.082094669E0
4.107119040E0,1.171864420E-1,9.635094643E0,2.096467495E0
4.109123467E0,1.603050530E-1,9.615930557E0,2.058139801E0
4.111127894E0,2.034236640E-1,9.601557732E0,2.005439281E0
4.113132321E0,1.986327171E-1,9.615930557E0,2.086885452E0
4.115136748E0,2.082146257E-1,9.601557732E0,2.096467495E0
4.117141175E0,2.273784578E-1,9.587184906E0,2.053348780E0
4.119145602E0,2.465422899E-1,9.596766472E0,2.082094669E0
4.121150029E0,2.465422899E-1,9.620721817E0,2.034184933E0
4.123154456E0,2.704970837E-1,9.591975212E0,2.048557758E0
4.125158883E0,2.561241984E-1,9.611139297E0,2.091676474E0
4.127163310E0,2.657061219E-1,9.591975212E0,2.053348780E0
4.129167738E0,2.561241984E-1,9.663840294E0,2.043766975E0
4.131172165E0,2.752880454E-1,9.635094643E0,2.086885452E0
4.133176592E0,2.896609008E-1,9.644676208E0,2.101258278E0
4.135181019E0,2.896609008E-1,9.620721817E0,2.048557758E0
4.137185446E0,2.752880454E-1,9.630303383E0,2.043766975E0
4.139189873E0,2.944518328E-1,9.620721817E0,2.077303648E0
4.141194300E0,3.423614502E-1,9.635094643E0,2.038975954E0
4.143198727E0,3.375704885E-1,9.654257774E0,2.038975954E0
4.145203154E0,3.088247180E-1,9.668630600E0,1.991066456E0
4.147207581E0,3.184066415E-1,9.687794685E0,2.038975954E0
4.149212008E0,3.519433141E-1,9.702167511E0,2.053348780E0
4.151216435E0,3.615252376E-1,9.706958771E0,2.034184933E0
4.153220863E0,3.615252376E-1,9.754868507E0,2.048557758E0
4.155225290E0,3.567342758E-1,9.774031639E0,2.058139801E0
4.157229717E0,3.567342758E-1,9.797986984E0,2.024603128E0
4.159234144E0,2.848699391E-1,9.821941376E0,2.010230303E0
4.161238571E0,3.136156797E-1,9.793195724E0,2.029393911E0
4.163242998E0,3.184066415E-1,9.759658813E0,2.053348780E0
4.165247425E0,2.800789773E-1,9.769241333E0,2.048557758E0
4.167251852E0,2.848699391E-1,9.774031639E0,2.034184933E0
4.169256279E0,2.992427945E-1,9.764450073E0,2.038975954E0
4.171260706E0,3.184066415E-1,9.769241333E0,2.077303648E0
4.173265133E0,3.040337563E-1,9.735704422E0,2.082094669E0
4.175269560E0,2.944518328E-1,9.721331596E0,2.101258278E0
4.177273988E0,2.752880454E-1,9.721331596E0,2.120422125E0
4.179278415E0,2.800789773E-1,9.702167511E0,2.082094669E0
4.181282842E0,2.704970837E-1,9.683003426E0,2.086885452E0
4.183287269E0,2.513332367E-1,9.683003426E0,2.144376993E0
4.185291748E0,2.465422899E-1,9.654257774E0,2.144376993E0
4.187296227E0,2.034236640E-1,9.644676208E0,2.187495708E0
4.189300706E0,1.938417554E-1,9.630303383E0,2.240196228E0
4.191305185E0,1.890507936E-1,9.606348038E0,2.187495708E0
4.193309665E0,2.130055875E-1,9.601557732E0,2.144376993E0
4.195314144E0,2.082146257E-1,9.596766472E0,2.177913666E0
4.197318623E0,2.034236640E-1,9.591975212E0,2.211450338E0
4.199323102E0,1.794688851E-1,9.577602386E0,2.240196228E0
4.201327581E0,1.938417554E-1,9.582393646E0,2.273732901E0
4.203332060E0,2.130055875E-1,9.572812080E0,2.240196228E0
4.205336540E0,1.986327171E-1,9.587184906E0,2.254569054E0
4.207341019E0,2.082146257E-1,9.572812080E0,2.283314705E0
4.209345498E0,1.938417554E-1,9.596766472E0,2.264151096E0
4.211349977E0,1.938417554E-1,9.596766472E0,2.288105726E0
4.213354456E0,1.938417554E-1,9.596766472E0,2.326433420E0
4.215358935E0,2.034236640E-1,9.577602386E0,2.302478552E0
4.217363415E0,2.082146257E-1,9.539275169E0,2.235405207E0
4.219367894E0,1.986327171E-1,9.529693604E0,2.249778032E0
4.221372373E0,2.130055875E-1,9.548856735E0,2.235405207E0
4.223376852E0,2.225874960E-1,9.544066429E0,2.254569054E0
4.225381331E0,2.465422899E-1,9.558439255E0,2.201868534E0
4.227385810E0,2.657061219E-1,9.544066429E0,2.230614185E0
4.229390290E0,2.609151602E-1,9.539275169E0,2.211450338E0
4.231394769E0,2.465422899E-1,9.553647995E0,2.235405207E0
4.233399248E0,2.369603664E-1,9.544066429E0,2.197077513E0
4.235403727E0,2.465422899E-1,9.520111084E0,2.187495708E0
4.237408206E0,2.704970837E-1,9.496156693E0,2.163540840E0
4.239412685E0,2.752880454E-1,9.534483910E0,2.086885452E0
4.241417165E0,2.896609008E-1,9.520111084E0,2.043766975E0
4.243421644E0,3.088247180E-1,9.534483910E0,2.019812107E0
4.245426123E0,3.184066415E-1,9.539275169E0,1.981484532E0
4.247430602E0,3.711071610E-1,9.534483910E0,1.938365936E0
4.249435081E0,3.950619698E-1,9.539275169E0,1.962320685E0
4.251439560E0,4.333896041E-1,9.558439255E0,1.947947860E0
4.253444040E0,4.333896041E-1,9.568020821E0,1.943156838E0
4.255448519E0,4.477624893E-1,9.582393646E0,1.928784013E0
4.257452998E0,4.477624893E-1,9.558439255E0,1.928784013E0
4.259457477E0,4.525534511E-1,9.534483910E0,1.938365936E0
