"Time (s)","Gyroscope x (rad/s)","Gyroscope y (rad/s)","Gyroscope z (rad/s)"
1.201885400E-2,-1.038731858E-1,2.332594097E-1,2.167977765E-2
1.402291700E-2,-1.070689708E-1,2.449773401E-1,2.807135880E-2
1.602765600E-2,-1.145258173E-1,2.460425943E-1,2.487556823E-2
1.803302100E-2,-1.177216098E-1,2.534994483E-1,3.020188585E-2
2.003895800E-2,-1.177216098E-1,2.566952407E-1,2.913662419E-2
2.204541700E-2,-1.177216098E-1,2.630868256E-1,3.126715124E-2
2.405229200E-2,-1.155910790E-1,2.641520798E-1,3.020188585E-2
2.605942700E-2,-1.155910790E-1,2.694784105E-1,2.807135880E-2
2.806671900E-2,-1.134605557E-1,2.716089189E-1,2.807135880E-2
3.007406200E-2,-1.155910790E-1,2.737394571E-1,2.594083175E-2
3.208140600E-2,-1.113300323E-1,2.748047113E-1,1.848398708E-2
3.408145800E-2,-1.081342399E-1,2.801310420E-1,1.954925060E-2
3.608151000E-2,-1.060037091E-1,2.737394571E-1,1.741872355E-2
3.808203100E-2,-1.006773934E-1,2.769352496E-1,1.954925060E-2
4.008312500E-2,-9.109002352E-2,2.737394571E-1,2.061451413E-2
4.208494800E-2,-8.789423108E-2,2.737394571E-1,1.741872355E-2
4.408755200E-2,-8.469843864E-2,2.737394571E-1,2.061451413E-2
4.609098900E-2,-8.150264621E-2,2.694784105E-1,2.167977765E-2
4.809526000E-2,-7.937212288E-2,2.684131265E-1,2.700609528E-2
5.010031200E-2,-7.511106879E-2,2.673478723E-1,2.274504118E-2
5.210609400E-2,-6.765422225E-2,2.694784105E-1,2.167977765E-2
5.411255200E-2,-5.806685239E-2,2.641520798E-1,2.487556823E-2
5.611958300E-2,-5.700159073E-2,2.673478723E-1,2.807135880E-2
5.812703100E-2,-4.528369009E-2,2.609562874E-1,2.913662419E-2
6.013479200E-2,-3.569631651E-2,2.620215416E-1,3.020188585E-2
6.214270800E-2,-2.823946998E-2,2.620215416E-1,3.126715124E-2
6.415062500E-2,-2.184788883E-2,2.630868256E-1,3.659347072E-2
6.615583300E-2,-1.652157120E-2,2.588257790E-1,3.765873238E-2
6.816031200E-2,-7.999463007E-3,2.652173340E-1,3.020188585E-2
7.016473900E-2,-2.673145384E-3,2.630868256E-1,2.913662419E-2
7.216916700E-2,5.226451904E-4,2.588257790E-1,2.913662419E-2
7.417359400E-2,5.848962814E-3,2.577604949E-1,2.061451413E-2
7.617802100E-2,6.914226338E-3,2.620215416E-1,2.487556823E-2
7.818244800E-2,9.044753388E-3,2.588257790E-1,2.274504118E-2
8.018687500E-2,1.330580749E-2,2.556299865E-1,2.061451413E-2
8.219130200E-2,1.330580749E-2,2.630868256E-1,1.422293205E-2
8.419572900E-2,1.756686158E-2,2.641520798E-1,1.422293205E-2
8.620015600E-2,1.756686158E-2,2.662826180E-1,1.209240500E-2
8.820458300E-2,2.182791568E-2,2.726742029E-1,8.896614425E-3
9.020901000E-2,2.289317921E-2,2.758699954E-1,4.635560326E-3
9.221343700E-2,2.928475849E-2,2.833268344E-1,3.570297500E-3
9.421786400E-2,3.248054534E-2,2.897184193E-1,3.745069262E-4
9.622229200E-2,3.567633778E-2,2.939794660E-1,-2.821283648E-3
9.822671900E-2,3.780686855E-2,2.971752584E-1,-4.951810464E-3
1.002311460E-1,3.993739188E-2,3.035668433E-1,1.439770451E-3
1.022355730E-1,4.419844598E-2,3.078278899E-1,-1.756020123E-3
1.042400000E-1,4.313318431E-2,3.110236824E-1,3.745069262E-4
1.062444270E-1,4.526370764E-2,3.184805214E-1,-1.756020123E-3
1.082488540E-1,4.739423841E-2,3.270026445E-1,-2.821283648E-3
1.102532810E-1,5.165529251E-2,3.280678988E-1,-3.886547172E-3
1.122577080E-1,4.952476174E-2,3.333941996E-1,3.745069262E-4
1.142621350E-1,5.378581583E-2,3.376552761E-1,-2.821283648E-3
1.162665620E-1,5.378581583E-2,3.408510685E-1,-2.821283648E-3
1.182709890E-1,5.059003085E-2,3.397857845E-1,-2.821283648E-3
1.202754170E-1,4.845950007E-2,3.419163227E-1,1.439770451E-3
1.222798440E-1,4.845950007E-2,3.440468609E-1,-1.756020123E-3
1.242842710E-1,4.526370764E-2,3.493731618E-1,1.439770451E-3
1.262886980E-1,4.419844598E-2,3.472426534E-1,-1.756020123E-3
1.282931250E-1,3.780686855E-2,3.472426534E-1,1.439770451E-3
1.302975520E-1,3.354581445E-2,3.483079076E-1,3.570297500E-3
1.323019790E-1,3.035002388E-2,3.536342084E-1,4.635560326E-3
1.343064060E-1,2.395844273E-2,3.589605391E-1,8.896614425E-3
1.363108330E-1,2.608896978E-2,3.610910773E-1,8.896614425E-3
1.383152600E-1,2.182791568E-2,3.621563315E-1,1.315766852E-2
1.403196870E-1,2.715423144E-2,3.706784248E-1,1.422293205E-2
1.423241140E-1,2.608896978E-2,3.823963404E-1,1.422293205E-2
1.443285420E-1,2.928475849E-2,3.834615946E-1,1.741872355E-2
1.463329690E-1,2.608896978E-2,3.962447643E-1,1.635346003E-2
1.483373960E-1,2.715423144E-2,4.143542349E-1,1.422293205E-2
1.503418230E-1,2.395844273E-2,4.175500274E-1,1.635346003E-2
1.523462500E-1,2.502370626E-2,4.143542349E-1,1.954925060E-2
1.543506770E-1,3.035002388E-2,4.175500274E-1,1.954925060E-2
1.563551040E-1,3.461107612E-2,4.154195189E-1,2.700609528E-2
1.583595310E-1,3.780686855E-2,4.058321416E-1,3.233241662E-2
1.603639580E-1,4.100265354E-2,4.047668576E-1,3.872399405E-2
1.623683850E-1,4.313318431E-2,4.015710652E-1,4.191978648E-2
1.643728120E-1,4.419844598E-2,3.994405568E-1,4.085452482E-2
1.663772390E-1,4.632897675E-2,3.962447643E-1,4.937663302E-2
1.683816670E-1,4.632897675E-2,3.930489719E-1,4.831136763E-2
1.703860940E-1,4.313318431E-2,3.951795101E-1,4.937663302E-2
1.723905210E-1,4.100265354E-2,4.005058110E-1,5.150715634E-2
1.743949480E-1,3.887213022E-2,3.983752728E-1,5.044189468E-2
1.763993750E-1,3.674159944E-2,4.026363492E-1,5.470294878E-2
1.784038020E-1,3.354581445E-2,3.973100185E-1,5.363768712E-2
1.804082290E-1,2.289317921E-2,4.047668576E-1,5.257242173E-2
1.824126560E-1,2.289317921E-2,4.026363492E-1,5.363768712E-2
1.844170830E-1,1.969738863E-2,4.026363492E-1,5.576821044E-2
1.864215100E-1,1.437107101E-2,4.100931883E-1,5.363768712E-2
1.884259370E-1,6.914226338E-3,4.111584425E-1,5.257242173E-2
1.904303640E-1,5.848962814E-3,4.111584425E-1,5.150715634E-2
1.924347920E-1,1.587908715E-3,4.111584425E-1,5.257242173E-2
1.944392190E-1,-5.868935958E-3,4.079626501E-1,5.470294878E-2
1.964436460E-1,-9.064726532E-3,4.090279341E-1,5.044189468E-2
1.984480730E-1,-1.439104415E-2,4.143542349E-1,5.257242173E-2
2.004525000E-1,-1.758683473E-2,4.154195189E-1,4.831136763E-2
2.024569270E-1,-1.865209825E-2,4.111584425E-1,4.618084058E-2
2.044613540E-1,-2.397841588E-2,4.132889807E-1,4.831136763E-2
2.064658330E-1,-2.504367940E-2,4.143542349E-1,4.724610224E-2
2.084703120E-1,-3.036999702E-2,4.122237265E-1,4.831136763E-2
2.104747920E-1,-2.717420645E-2,4.143542349E-1,4.511557892E-2
2.124792710E-1,-2.504367940E-2,4.132889807E-1,4.191978648E-2
2.144837500E-1,-2.078262530E-2,4.143542349E-1,3.872399405E-2
2.164882290E-1,-1.758683473E-2,4.143542349E-1,4.085452482E-2
2.184927080E-1,-1.332578063E-2,4.090279341E-1,3.552820534E-2
2.204971870E-1,-7.999463007E-3,4.122237265E-1,3.339767829E-2
2.225016670E-1,-4.803672433E-3,4.068973958E-1,3.233241662E-2
2.245061460E-1,2.653172240E-3,4.068973958E-1,2.700609528E-2
2.265106250E-1,1.587908715E-3,4.026363492E-1,2.700609528E-2
2.285151040E-1,6.914226338E-3,4.005058110E-1,1.848398708E-2
2.305195830E-1,1.543633454E-2,3.973100185E-1,1.741872355E-2
2.325240620E-1,2.182791568E-2,3.951795101E-1,1.422293205E-2
2.345285420E-1,2.928475849E-2,3.983752728E-1,1.528819557E-2
2.365330210E-1,3.887213022E-2,4.068973958E-1,1.848398708E-2
2.385375000E-1,4.845950007E-2,4.292679429E-1,1.954925060E-2
2.405419790E-1,5.378581583E-2,4.420510828E-1,2.381030470E-2
2.425464580E-1,5.591634661E-2,4.463121593E-1,1.635346003E-2
2.445509370E-1,6.017740071E-2,4.335289896E-1,1.102714147E-2
2.465554170E-1,6.443845481E-2,4.196805656E-1,4.635560326E-3
2.485598960E-1,7.083003223E-2,3.951795101E-1,3.570297500E-3
2.505643750E-1,7.509108633E-2,3.813310862E-1,2.505033975E-3
2.525688540E-1,7.615634799E-2,3.600257933E-1,6.766087376E-3
2.545733330E-1,7.615634799E-2,3.419163227E-1,3.570297500E-3
2.565778120E-1,7.615634799E-2,3.397857845E-1,7.831350900E-3
2.585822920E-1,7.189530134E-2,3.312636912E-1,6.766087376E-3
2.605867710E-1,7.189530134E-2,3.291331530E-1,7.831350900E-3
2.625912500E-1,6.656897813E-2,3.333941996E-1,9.961877950E-3
2.645957290E-1,6.550371647E-2,3.344594836E-1,1.422293205E-2
2.666002080E-1,6.550371647E-2,3.323289454E-1,1.848398708E-2
2.686046870E-1,6.017740071E-2,3.365899920E-1,1.741872355E-2
2.706091670E-1,6.230792403E-2,3.472426534E-1,1.528819557E-2
2.726136460E-1,5.485108495E-2,3.472426534E-1,2.061451413E-2
2.746181250E-1,5.485108495E-2,3.525689542E-1,1.741872355E-2
2.766226040E-1,4.845950007E-2,3.568300009E-1,2.487556823E-2
2.786270830E-1,4.632897675E-2,3.621563315E-1,2.594083175E-2
2.806315620E-1,4.313318431E-2,3.685479164E-1,3.233241662E-2
2.826359890E-1,3.993739188E-2,3.738742173E-1,3.659347072E-2
2.846404170E-1,3.354581445E-2,3.781352937E-1,3.552820534E-2
2.866448440E-1,2.608896978E-2,3.866573870E-1,3.552820534E-2
2.886492710E-1,2.182791568E-2,3.919837177E-1,3.765873238E-2
2.906536980E-1,1.756686158E-2,3.973100185E-1,4.724610224E-2
2.926581250E-1,9.044753388E-3,4.068973958E-1,4.618084058E-2
2.946625520E-1,4.783699289E-3,4.175500274E-1,4.298504815E-2
2.966669790E-1,-1.607881859E-3,4.228763580E-1,4.724610224E-2
2.986714060E-1,-4.803672433E-3,4.324637055E-1,4.831136763E-2
3.006758330E-1,-1.012999006E-2,4.377900362E-1,4.831136763E-2
3.026802600E-1,-2.078262530E-2,4.463121593E-1,4.831136763E-2
3.046846870E-1,-2.397841588E-2,4.505732059E-1,4.937663302E-2
3.066891140E-1,-3.463105112E-2,4.590952992E-1,4.831136763E-2
3.086935420E-1,-3.889210522E-2,4.654868841E-1,4.511557892E-2
3.106979690E-1,-4.315315932E-2,4.686826766E-1,3.978925943E-2
3.127023960E-1,-4.421842843E-2,4.750742614E-1,3.446293995E-2
3.147068230E-1,-5.487105995E-2,4.782700539E-1,2.807135880E-2
3.167112500E-1,-5.593632162E-2,4.846616387E-1,2.594083175E-2
3.187156770E-1,-6.019737571E-2,4.899879396E-1,2.167977765E-2
3.207201040E-1,-6.019737571E-2,4.931837022E-1,1.635346003E-2
3.227245310E-1,-6.019737571E-2,4.963795245E-1,1.102714147E-2
3.247289580E-1,-5.806685239E-2,4.974447787E-1,1.741872355E-2
3.267333850E-1,-5.061000586E-2,5.496426225E-1,2.594083175E-2
3.287378120E-1,-5.487105995E-2,5.752089620E-1,2.700609528E-2
3.307422390E-1,-6.339316815E-2,5.560342073E-1,1.954925060E-2
3.327466670E-1,-6.765422225E-2,5.294026136E-1,7.831350900E-3
3.347510940E-1,-6.765422225E-2,5.059668422E-1,-1.756020123E-3
3.367555210E-1,-6.126264483E-2,4.825311303E-1,-6.907565985E-4
3.387599480E-1,-5.700159073E-2,4.665521383E-1,-7.082337514E-3
3.407643750E-1,-5.274053663E-2,4.537689984E-1,-6.907565985E-4
3.427688020E-1,-5.061000586E-2,4.441816211E-1,-1.756020123E-3
3.447732290E-1,-4.315315932E-2,4.409858286E-1,4.635560326E-3
3.467776560E-1,-3.889210522E-2,4.345942438E-1,9.961877950E-3
3.487820830E-1,-3.143525869E-2,4.345942438E-1,1.102714147E-2
3.507865100E-1,-2.717420645E-2,4.345942438E-1,9.961877950E-3
3.527909370E-1,-1.758683473E-2,4.324637055E-1,1.209240500E-2
3.547953640E-1,-9.064726532E-3,4.356594980E-1,1.315766852E-2
3.567997920E-1,5.226451904E-4,4.303331971E-1,1.102714147E-2
3.588042190E-1,1.011001691E-2,4.282026589E-1,8.896614425E-3
3.608086460E-1,1.117528044E-2,4.154195189E-1,1.102714147E-2
3.628130730E-1,2.928475849E-2,4.154195189E-1,1.102714147E-2
3.648175000E-1,2.608896978E-2,4.132889807E-1,1.315766852E-2
3.668219270E-1,3.248054534E-2,4.079626501E-1,7.831350900E-3
3.688263540E-1,3.461107612E-2,4.058321416E-1,3.570297500E-3
3.708307810E-1,3.674159944E-2,4.015710652E-1,1.439770451E-3
3.728352080E-1,3.780686855E-2,4.037016034E-1,-6.907565985E-4
3.748396350E-1,3.780686855E-2,4.037016034E-1,-6.017073989E-3
3.768440620E-1,3.780686855E-2,4.037016034E-1,-2.821283648E-3
3.788484890E-1,4.100265354E-2,4.090279341E-1,-8.147601038E-3
3.808529170E-1,3.780686855E-2,4.132889807E-1,-7.082337514E-3
3.828573440E-1,4.100265354E-2,4.154195189E-1,-1.134339254E-2
3.848617710E-1,3.780686855E-2,4.196805656E-1,-1.240865607E-2
3.868661980E-1,4.100265354E-2,4.271374047E-1,-1.666970924E-2
3.888706250E-1,3.461107612E-2,4.282026589E-1,-1.134339254E-2
3.908750520E-1,3.354581445E-2,4.356594980E-1,-1.666970924E-2
3.928794790E-1,3.461107612E-2,4.409858286E-1,-1.560444664E-2
3.948839060E-1,2.715423144E-2,4.463121593E-1,-1.880023628E-2
3.968883330E-1,2.608896978E-2,4.558995068E-1,-2.306129038E-2
3.988927600E-1,2.182791568E-2,4.612258375E-1,-2.412655391E-2
4.008971870E-1,1.863212511E-2,4.718784690E-1,-2.625708096E-2
4.029016140E-1,1.650159806E-2,4.761395156E-1,-2.093076333E-2
4.049060420E-1,1.224054396E-2,4.878574014E-1,-2.412655391E-2
4.069104690E-1,1.543633454E-2,4.942489564E-1,-2.093076333E-2
4.089148960E-1,1.330580749E-2,5.059668422E-1,-2.093076333E-2
4.109193230E-1,1.969738863E-2,5.592300296E-1,3.570297500E-3
4.129237500E-1,1.863212511E-2,5.997100472E-1,5.700823851E-3
4.149281770E-1,7.979489863E-3,5.954489708E-1,3.745069262E-4
4.169326040E-1,7.979489863E-3,5.752089620E-1,-1.134339254E-2
4.189370310E-1,1.650159806E-2,5.517731905E-1,-1.986549981E-2
4.209415100E-1,1.969738863E-2,5.347289443E-1,-2.412655391E-2
4.229459890E-1,2.928475849E-2,5.123584270E-1,-2.732234448E-2
4.249504690E-1,3.461107612E-2,4.995752871E-1,-3.371392936E-2
4.269549480E-1,4.419844598E-2,4.793353081E-1,-3.371392936E-2
4.289594270E-1,4.526370764E-2,4.590952992E-1,-3.690971434E-2
4.309639060E-1,5.378581583E-2,4.441816211E-1,-3.797497973E-2
4.329683850E-1,6.337319314E-2,4.324637055E-1,-4.436655715E-2
4.349728640E-1,7.083003223E-2,4.132889807E-1,-4.862761125E-2
4.369773440E-1,7.509108633E-2,4.005058110E-1,-5.501919612E-2
4.389818230E-1,8.041740954E-2,3.866573870E-1,-5.928025022E-2
4.409863020E-1,8.680898696E-2,3.749395013E-1,-6.567183137E-2
4.429907810E-1,9.426583350E-2,3.610910773E-1,-7.099814713E-2
4.449952600E-1,1.038532034E-1,3.461773694E-1,-7.312867790E-2
4.469997390E-1,1.081142575E-1,3.301984072E-1,-7.419393957E-2
4.490042190E-1,1.102447808E-1,3.216763139E-1,-8.058552444E-2
4.510086980E-1,1.187668890E-1,3.078278899E-1,-8.165078610E-2
4.530131770E-1,1.177016273E-1,2.982405126E-1,-8.378131688E-2
4.550176560E-1,1.166363657E-1,2.843920887E-1,-8.697710186E-2
4.570221350E-1,1.198321581E-1,2.737394571E-1,-9.017289430E-2
4.590266140E-1,1.177016273E-1,2.609562874E-1,-8.804236352E-2
4.610310940E-1,1.177016273E-1,2.471078485E-1,-8.804236352E-2
4.630355730E-1,1.102447808E-1,2.353899479E-1,-9.017289430E-2
4.650400520E-1,1.070489958E-1,2.236720324E-1,-8.804236352E-2
4.670445310E-1,1.027879417E-1,2.140846699E-1,-8.804236352E-2
4.690490100E-1,9.746162593E-2,2.002362460E-1,-8.910763264E-2
4.710534890E-1,9.320056438E-2,1.874530762E-1,-8.697710186E-2
4.730579690E-1,8.467845619E-2,1.768004447E-1,-9.123815596E-2
4.750624480E-1,8.041740954E-2,1.661478132E-1,-9.123815596E-2
4.770669270E-1,7.189530134E-2,1.501688510E-1,-9.017289430E-2
4.790714060E-1,6.656897813E-2,1.416467428E-1,-9.123815596E-2
4.810758850E-1,6.017740071E-2,1.288635880E-1,-9.123815596E-2
4.830803640E-1,5.378581583E-2,1.171456948E-1,-9.336868674E-2
4.850848440E-1,5.059003085E-2,1.086235940E-1,-9.656447172E-2
4.870893230E-1,4.739423841E-2,9.690569341E-2,-9.336868674E-2
4.890938020E-1,4.419844598E-2,8.412253112E-2,-9.549921006E-2
4.910982810E-1,3.887213022E-2,7.560042292E-2,-9.762974083E-2
4.931027600E-1,3.780686855E-2,6.388252974E-2,-1.008255333E-1
4.951072390E-1,3.248054534E-2,5.216462910E-2,-9.762974083E-2
4.971116670E-1,3.354581445E-2,4.364252090E-2,-1.029560566E-1
4.991160940E-1,2.502370626E-2,4.151199013E-2,-1.029560566E-1
5.011205210E-1,2.182791568E-2,3.512041271E-2,-1.029560566E-1
5.031249480E-1,2.182791568E-2,2.979408950E-2,-9.869500250E-2
5.051293750E-1,1.756686158E-2,1.488040108E-2,-9.656447172E-2
5.071338020E-1,1.437107101E-2,2.340251207E-2,-9.017289430E-2
5.091382290E-1,1.437107101E-2,1.274987403E-2,-8.484657854E-2
5.111426560E-1,1.224054396E-2,1.274987403E-2,-7.952025533E-2
5.131470830E-1,1.224054396E-2,7.423556410E-3,-7.738973200E-2
5.151515100E-1,1.756686158E-2,3.162502311E-3,-7.419393957E-2
5.171559370E-1,1.650159806E-2,1.031975262E-3,-6.993288547E-2
5.191603640E-1,2.608896978E-2,-7.490132935E-3,-6.673710048E-2
5.211647920E-1,2.502370626E-2,-1.175118703E-2,-6.567183137E-2
5.231692190E-1,2.928475849E-2,-1.707750559E-2,-6.034551188E-2
5.251736460E-1,3.461107612E-2,-2.666487545E-2,-5.714971945E-2
5.271780730E-1,3.567633778E-2,-3.305645660E-2,-5.288866535E-2
5.291825000E-1,3.887213022E-2,-4.264383018E-2,-5.288866535E-2
5.311869270E-1,4.100265354E-2,-5.649225414E-2,-4.649708793E-2
5.331913540E-1,4.100265354E-2,-6.288383156E-2,-4.649708793E-2
5.351957810E-1,4.313318431E-2,-7.353647053E-2,-4.330129549E-2
5.372002080E-1,4.419844598E-2,-8.525437117E-2,-4.117076844E-2
5.392046350E-1,3.993739188E-2,-9.484174103E-2,-3.904024139E-2
5.412090620E-1,4.419844598E-2,-1.022985876E-1,-3.477918729E-2
5.432134890E-1,4.313318431E-2,-1.118859574E-1,-3.371392936E-2
5.452179170E-1,4.100265354E-2,-1.182775348E-1,-3.051813506E-2
5.472223440E-1,3.887213022E-2,-1.246691197E-1,-2.838760801E-2
5.492267710E-1,3.567633778E-2,-1.310607046E-1,-2.519181743E-2
5.512311980E-1,2.928475849E-2,-1.363870353E-1,-2.306129038E-2
5.532356250E-1,3.141528368E-2,-1.385175586E-1,-2.519181743E-2
5.552400520E-1,3.141528368E-2,-1.395828128E-1,-2.838760801E-2
5.572444790E-1,2.821949683E-2,-1.459743977E-1,-2.519181743E-2
5.592489060E-1,2.608896978E-2,-1.481049359E-1,-2.412655391E-2
5.612533330E-1,2.502370626E-2,-1.502354592E-1,-2.519181743E-2
5.632577600E-1,1.969738863E-2,-1.502354592E-1,-2.519181743E-2
5.652621870E-1,1.863212511E-2,-1.544965059E-1,-2.412655391E-2
5.672666140E-1,1.437107101E-2,-1.544965059E-1,-2.093076333E-2
5.692710420E-1,1.011001691E-2,-1.502354592E-1,-1.773497276E-2
5.712754690E-1,1.117528044E-2,-1.502354592E-1,-1.986549981E-2
5.732798960E-1,9.044753388E-3,-1.523659825E-1,-1.880023628E-2
5.752843230E-1,4.783699289E-3,-1.491701901E-1,-1.134339254E-2
5.772887500E-1,7.979489863E-3,-1.438438743E-1,-1.666970924E-2
5.792931770E-1,9.044753388E-3,-1.481049359E-1,-9.212864563E-3
5.812976040E-1,4.783699289E-3,-1.385175586E-1,-1.027812809E-2
5.833020310E-1,6.914226338E-3,-1.417133510E-1,-9.212864563E-3
5.853064580E-1,3.718435764E-3,-1.363870353E-1,-1.347391959E-2
5.873108850E-1,7.979489863E-3,-1.289301813E-1,-9.212864563E-3
5.893153120E-1,5.848962814E-3,-1.342564970E-1,-1.560444664E-2
5.913197390E-1,1.011001691E-2,-1.246691197E-1,-1.134339254E-2
5.933241670E-1,9.044753388E-3,-1.257343888E-1,-4.951810464E-3
5.953285940E-1,1.011001691E-2,-1.246691197E-1,-1.027812809E-2
5.973330210E-1,1.224054396E-2,-1.161470115E-1,-9.212864563E-3
5.993374480E-1,1.117528044E-2,-1.150817424E-1,-9.212864563E-3
6.013418750E-1,1.437107101E-2,-1.108206958E-1,-8.147601038E-3
6.033463020E-1,1.437107101E-2,-1.065596342E-1,-1.027812809E-2
6.053507290E-1,1.437107101E-2,-1.054943725E-1,-1.134339254E-2
6.073551560E-1,1.330580749E-2,-9.803752601E-2,-1.560444664E-2
6.093595830E-1,1.330580749E-2,-9.803752601E-2,-1.347391959E-2
6.113640100E-1,1.650159806E-2,-9.590700269E-2,-1.880023628E-2
6.133684370E-1,1.650159806E-2,-8.738489449E-2,-1.986549981E-2
6.153728640E-1,1.650159806E-2,-9.164594859E-2,-2.093076333E-2
6.173772920E-1,2.289317921E-2,-8.525437117E-2,-1.986549981E-2
6.193817190E-1,2.289317921E-2,-8.525437117E-2,-1.453918312E-2
6.213861460E-1,2.608896978E-2,-8.418910205E-2,-1.773497276E-2
6.233905730E-1,2.502370626E-2,-7.779752463E-2,-2.093076333E-2
6.253950000E-1,2.715423144E-2,-7.992804796E-2,-1.773497276E-2
6.273994270E-1,2.928475849E-2,-7.779752463E-2,-2.199602686E-2
6.294038540E-1,3.141528368E-2,-7.886278629E-2,-1.880023628E-2
6.314082810E-1,2.928475849E-2,-7.992804796E-2,-2.625708096E-2
6.334127080E-1,2.608896978E-2,-8.205857873E-2,-2.306129038E-2
6.354171350E-1,2.821949683E-2,-8.418910205E-2,-2.519181743E-2
6.374215620E-1,2.715423144E-2,-8.418910205E-2,-2.412655391E-2
6.394260420E-1,2.289317921E-2,-8.312384039E-2,-2.519181743E-2
6.414305210E-1,2.289317921E-2,-8.418910205E-2,-2.945287153E-2
6.434350000E-1,1.650159806E-2,-8.525437117E-2,-3.371392936E-2
6.454394790E-1,1.756686158E-2,-8.631963283E-2,-2.732234448E-2
6.474439580E-1,1.224054396E-2,-7.992804796E-2,-2.838760801E-2
6.494484370E-1,9.044753388E-3,-8.631963283E-2,-2.838760801E-2
6.514552600E-1,7.979489863E-3,-8.312384039E-2,-2.625708096E-2
6.534583850E-1,5.226451904E-4,-7.886278629E-2,-2.945287153E-2
6.554615620E-1,5.226451904E-4,-7.992804796E-2,-2.625708096E-2
6.574647920E-1,-1.607881859E-3,-7.886278629E-2,-2.732234448E-2
6.594681250E-1,-7.999463007E-3,-8.312384039E-2,-2.625708096E-2
6.614716140E-1,-6.934199482E-3,-8.205857873E-2,-1.666970924E-2
6.634753120E-1,-7.999463007E-3,-8.525437117E-2,-2.093076333E-2
6.654792190E-1,-1.226051711E-2,-8.099331707E-2,-1.773497276E-2
6.674833330E-1,-1.758683473E-2,-8.418910205E-2,-1.880023628E-2
6.694877080E-1,-1.865209825E-2,-7.992804796E-2,-2.093076333E-2
6.714922920E-1,-2.397841588E-2,-8.312384039E-2,-1.453918312E-2
6.734970830E-1,-2.184788883E-2,-8.205857873E-2,-1.347391959E-2
6.755020830E-1,-2.184788883E-2,-8.099331707E-2,-1.773497276E-2
6.775072390E-1,-2.184788883E-2,-7.886278629E-2,-1.453918312E-2
6.795125000E-1,-2.504367940E-2,-7.886278629E-2,-1.666970924E-2
6.815178640E-1,-2.504367940E-2,-8.205857873E-2,-1.880023628E-2
6.835232810E-1,-2.397841588E-2,-8.312384039E-2,-2.412655391E-2
6.855286980E-1,-2.397841588E-2,-8.312384039E-2,-2.199602686E-2
6.875339580E-1,-2.610894293E-2,-8.525437117E-2,-2.306129038E-2
6.895383850E-1,-2.823946998E-2,-8.738489449E-2,-1.773497276E-2
6.915428120E-1,-2.610894293E-2,-8.525437117E-2,-2.306129038E-2
6.935472390E-1,-2.610894293E-2,-8.312384039E-2,-1.880023628E-2
6.955516670E-1,-2.504367940E-2,-7.779752463E-2,-1.773497276E-2
6.975560940E-1,-2.823946998E-2,-7.140593976E-2,-1.986549981E-2
6.995605210E-1,-2.504367940E-2,-7.566699386E-2,-1.880023628E-2
7.015649480E-1,-2.397841588E-2,-6.607962400E-2,-2.093076333E-2
7.035693750E-1,-2.291315235E-2,-6.288383156E-2,-1.880023628E-2
7.055738020E-1,-1.652157120E-2,-6.927541643E-2,-2.412655391E-2
7.075782290E-1,-1.758683473E-2,-7.034067810E-2,-2.519181743E-2
7.095826560E-1,-1.865209825E-2,-6.501436234E-2,-3.051813506E-2
7.115870830E-1,-1.758683473E-2,-6.607962400E-2,-2.732234448E-2
7.135915100E-1,-1.439104415E-2,-7.247120887E-2,-3.158339858E-2
7.155959370E-1,-1.545630768E-2,-7.886278629E-2,-3.051813506E-2
7.176003640E-1,-1.439104415E-2,-8.205857873E-2,-3.371392936E-2
7.196047920E-1,-1.119525358E-2,-9.271121025E-2,-3.158339858E-2
7.216092190E-1,-1.652157120E-2,-9.697226435E-2,-3.584444895E-2
7.236136460E-1,-1.332578063E-2,-1.054943725E-1,-3.584444895E-2
7.256180730E-1,-1.439104415E-2,-1.097554266E-1,-3.584444895E-2
7.276225000E-1,-1.865209825E-2,-1.108206958E-1,-3.584444895E-2
7.296269270E-1,-1.439104415E-2,-1.182775348E-1,-3.584444895E-2
7.316313540E-1,-1.865209825E-2,-1.193428040E-1,-2.945287153E-2
7.336357810E-1,-1.758683473E-2,-1.193428040E-1,-3.158339858E-2
7.356402080E-1,-1.865209825E-2,-1.193428040E-1,-2.945287153E-2
7.376446350E-1,-1.545630768E-2,-1.182775348E-1,-3.158339858E-2
7.396490620E-1,-1.971736178E-2,-1.204080656E-1,-2.945287153E-2
7.416534890E-1,-1.865209825E-2,-1.204080656E-1,-3.158339858E-2
7.436579170E-1,-1.545630768E-2,-1.214733273E-1,-2.625708096E-2
7.456623440E-1,-1.758683473E-2,-1.193428040E-1,-2.732234448E-2
7.476667710E-1,-1.332578063E-2,-1.172122732E-1,-2.412655391E-2
7.496711980E-1,-1.439104415E-2,-1.150817424E-1,-2.519181743E-2
7.516756250E-1,-6.934199482E-3,-1.118859574E-1,-2.519181743E-2
7.536800520E-1,-1.119525358E-2,-1.140164807E-1,-2.093076333E-2
7.556844790E-1,-3.738408908E-3,-1.118859574E-1,-2.625708096E-2
7.576889060E-1,-3.738408908E-3,-1.086901650E-1,-2.412655391E-2
7.596933330E-1,-5.426183343E-4,-1.118859574E-1,-2.306129038E-2
7.616977600E-1,3.718435764E-3,-1.086901650E-1,-1.986549981E-2
7.637021870E-1,1.011001691E-2,-1.044291109E-1,-1.880023628E-2
7.657066140E-1,1.437107101E-2,-9.910279512E-2,-1.666970924E-2
7.677110420E-1,1.650159806E-2,-9.590700269E-2,-1.347391959E-2
7.697154690E-1,1.543633454E-2,-9.377647936E-2,-1.240865607E-2
7.717198960E-1,1.863212511E-2,-9.377647936E-2,-8.147601038E-3
7.737243230E-1,2.289317921E-2,-8.845015615E-2,-1.240865607E-2
7.757287500E-1,2.289317921E-2,-8.738489449E-2,-1.240865607E-2
7.777331770E-1,2.928475849E-2,-8.631963283E-2,-4.951810464E-3
7.797376040E-1,2.928475849E-2,-8.631963283E-2,-9.212864563E-3
7.817420310E-1,3.248054534E-2,-8.312384039E-2,-9.212864563E-3
7.837464580E-1,2.928475849E-2,-7.992804796E-2,-9.212864563E-3
7.857508850E-1,2.928475849E-2,-8.845015615E-2,-7.082337514E-3
7.877553120E-1,3.248054534E-2,-8.099331707E-2,-1.134339254E-2
7.897597390E-1,2.715423144E-2,-8.845015615E-2,-1.453918312E-2
7.917641670E-1,2.928475849E-2,-8.845015615E-2,-1.027812809E-2
7.937685940E-1,2.821949683E-2,-8.951541781E-2,-1.453918312E-2
7.957730210E-1,3.141528368E-2,-9.058068693E-2,-1.347391959E-2
7.977774480E-1,3.141528368E-2,-9.484174103E-2,-1.773497276E-2
7.997818750E-1,2.502370626E-2,-9.271121025E-2,-1.666970924E-2
8.017863020E-1,2.502370626E-2,-9.697226435E-2,-2.306129038E-2
8.037907290E-1,2.608896978E-2,-9.697226435E-2,-1.666970924E-2
8.057951560E-1,2.821949683E-2,-9.697226435E-2,-2.519181743E-2
8.077995830E-1,2.289317921E-2,-9.164594859E-2,-2.306129038E-2
8.098040100E-1,2.289317921E-2,-8.951541781E-2,-2.625708096E-2
8.118084370E-1,2.289317921E-2,-9.058068693E-2,-2.519181743E-2
8.138128640E-1,2.182791568E-2,-8.951541781E-2,-2.732234448E-2
8.158172920E-1,2.395844273E-2,-8.312384039E-2,-2.732234448E-2
8.178217190E-1,2.076265216E-2,-8.525437117E-2,-2.732234448E-2
8.198261460E-1,2.821949683E-2,-7.992804796E-2,-2.945287153E-2
8.218305730E-1,2.821949683E-2,-7.886278629E-2,-3.051813506E-2
8.238350000E-1,3.354581445E-2,-7.673226297E-2,-3.158339858E-2
8.258394270E-1,3.141528368E-2,-8.099331707E-2,-2.838760801E-2
8.278438540E-1,2.821949683E-2,-8.099331707E-2,-2.519181743E-2
8.298483330E-1,3.354581445E-2,-7.992804796E-2,-2.625708096E-2
8.318528120E-1,3.674159944E-2,-8.099331707E-2,-2.625708096E-2
8.338572920E-1,3.993739188E-2,-8.418910205E-2,-2.519181743E-2
8.358617710E-1,4.206792265E-2,-8.951541781E-2,-2.306129038E-2
8.378662500E-1,4.632897675E-2,-8.738489449E-2,-2.199602686E-2
8.398707290E-1,4.632897675E-2,-9.377647936E-2,-2.519181743E-2
8.418752080E-1,4.739423841E-2,-9.697226435E-2,-2.412655391E-2
8.438796870E-1,4.952476174E-2,-9.484174103E-2,-2.519181743E-2
8.458841670E-1,5.378581583E-2,-9.590700269E-2,-2.519181743E-2
8.478886460E-1,5.591634661E-2,-9.377647936E-2,-2.945287153E-2
8.498931250E-1,5.591634661E-2,-1.012333184E-1,-2.519181743E-2
8.518976040E-1,5.272055417E-2,-1.012333184E-1,-2.838760801E-2
8.539020830E-1,5.698160827E-2,-1.033638492E-1,-3.051813506E-2
8.559065620E-1,5.378581583E-2,-1.076249033E-1,-2.732234448E-2
8.579110420E-1,5.378581583E-2,-1.140164807E-1,-3.051813506E-2
8.599155210E-1,5.378581583E-2,-1.140164807E-1,-2.732234448E-2
8.619200000E-1,5.272055417E-2,-1.150817424E-1,-2.412655391E-2
8.639244790E-1,5.165529251E-2,-1.129512191E-1,-2.519181743E-2
8.659289580E-1,5.485108495E-2,-1.204080656E-1,-2.093076333E-2
8.679334370E-1,5.485108495E-2,-1.193428040E-1,-2.199602686E-2
8.699379170E-1,5.272055417E-2,-1.214733273E-1,-1.986549981E-2
8.719423960E-1,5.272055417E-2,-1.225385889E-1,-2.093076333E-2
8.739468750E-1,5.165529251E-2,-1.246691197E-1,-1.560444664E-2
8.759513540E-1,5.378581583E-2,-1.236038506E-1,-2.093076333E-2
8.779558330E-1,5.591634661E-2,-1.257343888E-1,-2.199602686E-2
8.799603120E-1,5.272055417E-2,-1.278649122E-1,-2.093076333E-2
8.819647920E-1,5.378581583E-2,-1.299954355E-1,-1.986549981E-2
8.839692710E-1,5.272055417E-2,-1.321259588E-1,-2.199602686E-2
8.859737500E-1,5.165529251E-2,-1.353217512E-1,-2.199602686E-2
8.879782290E-1,5.059003085E-2,-1.353217512E-1,-2.625708096E-2
8.899827080E-1,4.739423841E-2,-1.331912279E-1,-2.625708096E-2
8.919871870E-1,5.059003085E-2,-1.342564970E-1,-2.519181743E-2
8.939916670E-1,4.313318431E-2,-1.331912279E-1,-2.625708096E-2
8.959961460E-1,4.206792265E-2,-1.278649122E-1,-2.625708096E-2
8.980006250E-1,3.993739188E-2,-1.225385889E-1,-3.051813506E-2
9.000051040E-1,3.887213022E-2,-1.161470115E-1,-3.158339858E-2
9.020095830E-1,4.313318431E-2,-1.150817424E-1,-3.158339858E-2
9.040140100E-1,4.100265354E-2,-1.044291109E-1,-3.477918729E-2
9.060184370E-1,4.313318431E-2,-1.033638492E-1,-3.158339858E-2
9.080228640E-1,4.206792265E-2,-1.001680568E-1,-3.158339858E-2
9.100272920E-1,4.313318431E-2,-1.012333184E-1,-3.051813506E-2
9.120317190E-1,4.419844598E-2,-9.590700269E-2,-3.477918729E-2
9.140361460E-1,4.632897675E-2,-9.590700269E-2,-3.051813506E-2
9.160405730E-1,4.100265354E-2,-9.697226435E-2,-2.838760801E-2
9.180450000E-1,4.845950007E-2,-9.803752601E-2,-3.051813506E-2
9.200494270E-1,4.739423841E-2,-1.022985876E-1,-2.732234448E-2
9.220538540E-1,5.059003085E-2,-1.054943725E-1,-2.838760801E-2
9.240582810E-1,4.845950007E-2,-1.012333184E-1,-2.625708096E-2
9.260627080E-1,5.059003085E-2,-1.012333184E-1,-2.412655391E-2
9.280671350E-1,5.059003085E-2,-1.012333184E-1,-2.519181743E-2
9.300715620E-1,5.059003085E-2,-1.044291109E-1,-2.412655391E-2
9.320759890E-1,5.059003085E-2,-1.086901650E-1,-1.773497276E-2
9.340804170E-1,5.485108495E-2,-1.118859574E-1,-1.560444664E-2
9.360848440E-1,5.485108495E-2,-1.172122732E-1,-1.880023628E-2
9.380892710E-1,5.698160827E-2,-1.140164807E-1,-1.453918312E-2
9.400936980E-1,5.911213905E-2,-1.204080656E-1,-1.453918312E-2
9.420981250E-1,6.017740071E-2,-1.257343888E-1,-1.027812809E-2
9.441025520E-1,5.804686993E-2,-1.321259588E-1,-1.134339254E-2
9.461069790E-1,6.230792403E-2,-1.331912279E-1,-1.027812809E-2
9.481114060E-1,6.443845481E-2,-1.395828128E-1,-7.082337514E-3
9.501158330E-1,6.230792403E-2,-1.470396668E-1,-9.212864563E-3
9.521202600E-1,6.230792403E-2,-1.481049359E-1,-1.240865607E-2
9.541246870E-1,6.230792403E-2,-1.566270441E-1,-1.240865607E-2
9.561291140E-1,6.230792403E-2,-1.640838832E-1,-1.027812809E-2
9.581335420E-1,6.124266237E-2,-1.694101989E-1,-9.212864563E-3
9.601379690E-1,6.017740071E-2,-1.779323071E-1,-1.027812809E-2
9.621423960E-1,5.591634661E-2,-1.875196844E-1,-1.240865607E-2
9.641468230E-1,5.698160827E-2,-1.992375851E-1,-7.082337514E-3
9.661512500E-1,5.485108495E-2,-2.066944242E-1,-4.951810464E-3
9.681556770E-1,5.591634661E-2,-2.098902166E-1,-8.147601038E-3
9.701601040E-1,5.698160827E-2,-2.109554708E-1,-7.082337514E-3
9.721645310E-1,5.272055417E-2,-2.205428481E-1,-1.756020123E-3
9.741689580E-1,5.485108495E-2,-2.226733714E-1,2.505033975E-3
9.761733850E-1,5.804686993E-2,-2.216081172E-1,1.439770451E-3
9.781778120E-1,5.591634661E-2,-2.290649563E-1,6.766087376E-3
9.801822390E-1,5.485108495E-2,-2.322607487E-1,1.209240500E-2
9.821866670E-1,5.911213905E-2,-2.311954796E-1,1.102714147E-2
9.841910940E-1,5.911213905E-2,-2.407828569E-1,1.422293205E-2
9.861955210E-1,5.911213905E-2,-2.407828569E-1,1.315766852E-2
9.881999480E-1,6.337319314E-2,-2.429133803E-1,1.848398708E-2
9.902043750E-1,6.443845481E-2,-2.482396960E-1,1.741872355E-2
9.922088020E-1,6.550371647E-2,-2.525007427E-1,1.422293205E-2
9.942132290E-1,6.337319314E-2,-2.599575818E-1,1.954925060E-2
9.962176560E-1,6.763423979E-2,-2.631533742E-1,2.061451413E-2
9.982220830E-1,6.763423979E-2,-2.716754675E-1,2.061451413E-2
1.000226510E0,6.976477057E-2,-2.780670524E-1,2.061451413E-2
1.002230937E0,6.656897813E-2,-2.887196839E-1,2.061451413E-2
1.004235364E0,6.763423979E-2,-2.929807305E-1,1.635346003E-2
1.006239792E0,6.656897813E-2,-2.983070612E-1,1.635346003E-2
1.008244219E0,6.763423979E-2,-3.004375696E-1,1.209240500E-2
1.010248646E0,7.083003223E-2,-3.078944385E-1,8.896614425E-3
1.012253073E0,6.976477057E-2,-3.153512776E-1,7.831350900E-3
1.014257500E0,7.189530134E-2,-3.217428625E-1,7.831350900E-3
1.016261927E0,6.869950891E-2,-3.249386549E-1,2.505033975E-3
1.018266354E0,6.976477057E-2,-3.281344473E-1,-2.821283648E-3
1.020270781E0,7.083003223E-2,-3.345260024E-1,-4.951810464E-3
1.022275208E0,6.976477057E-2,-3.398523331E-1,-6.017073989E-3
1.024279635E0,6.443845481E-2,-3.494397104E-1,-1.027812809E-2
1.026284062E0,6.443845481E-2,-3.558312953E-1,-1.027812809E-2
1.028288489E0,6.443845481E-2,-3.590270877E-1,-1.560444664E-2
1.030292917E0,6.656897813E-2,-3.654186726E-1,-1.347391959E-2
1.032297344E0,6.124266237E-2,-3.760713041E-1,-1.560444664E-2
1.034301771E0,5.911213905E-2,-3.771365583E-1,-2.093076333E-2
1.036306198E0,5.698160827E-2,-3.824628890E-1,-1.560444664E-2
1.038310625E0,6.124266237E-2,-3.835281432E-1,-1.773497276E-2
1.040315052E0,6.017740071E-2,-3.877891898E-1,-2.093076333E-2
1.042319479E0,6.017740071E-2,-3.899197280E-1,-2.199602686E-2
1.044323906E0,6.017740071E-2,-3.899197280E-1,-2.306129038E-2
1.046328385E0,6.337319314E-2,-3.931155205E-1,-2.625708096E-2
1.048332864E0,6.763423979E-2,-3.941807747E-1,-3.051813506E-2
1.050337344E0,6.976477057E-2,-3.995071054E-1,-3.477918729E-2
1.052341823E0,7.296056300E-2,-3.995071054E-1,-3.797497973E-2
1.054346302E0,7.615634799E-2,-4.037681520E-1,-3.904024139E-2
1.056350781E0,7.935214043E-2,-4.058986604E-1,-4.436655715E-2
1.058355260E0,8.041740954E-2,-4.080291986E-1,-4.649708793E-2
1.060359739E0,7.935214043E-2,-4.048334062E-1,-4.969287664E-2
1.062364219E0,7.722161710E-2,-4.069639444E-1,-5.075814202E-2
1.064368698E0,7.189530134E-2,-4.069639444E-1,-5.288866535E-2
1.066373177E0,7.615634799E-2,-4.048334062E-1,-5.714971945E-2
1.068377656E0,7.509108633E-2,-3.984418213E-1,-6.034551188E-2
1.070382135E0,7.189530134E-2,-3.931155205E-1,-6.141077355E-2
1.072386614E0,7.189530134E-2,-3.899197280E-1,-6.460656971E-2
1.074391094E0,7.402582467E-2,-3.813976049E-1,-6.673710048E-2
1.076395573E0,7.828687876E-2,-3.792670965E-1,-7.312867790E-2
1.078400052E0,7.722161710E-2,-3.686144352E-1,-8.058552444E-2
1.080404531E0,8.041740954E-2,-3.696797192E-1,-7.845499367E-2
1.082409010E0,7.935214043E-2,-3.611575961E-1,-8.591184020E-2
1.084413489E0,8.254793286E-2,-3.579618037E-1,-8.804236352E-2
1.086417969E0,8.574372530E-2,-3.526355028E-1,-8.697710186E-2
1.088422448E0,8.574372530E-2,-3.515702486E-1,-9.443394840E-2
1.090426927E0,8.361319453E-2,-3.462439179E-1,-9.869500250E-2
1.092431406E0,8.787424862E-2,-3.451786637E-1,-1.029560566E-1
1.094435885E0,8.787424862E-2,-3.441133797E-1,-1.050865799E-1
1.096440364E0,8.680898696E-2,-3.409175873E-1,-1.050865799E-1
1.098444844E0,8.361319453E-2,-3.419828713E-1,-1.136086881E-1
1.100449323E0,8.254793286E-2,-3.409175873E-1,-1.136086881E-1
1.102453802E0,7.722161710E-2,-3.409175873E-1,-1.146739572E-1
1.104458281E0,7.296056300E-2,-3.409175873E-1,-1.168044806E-1
1.106462760E0,6.869950891E-2,-3.387870789E-1,-1.178697497E-1
1.108467239E0,6.763423979E-2,-3.345260024E-1,-1.221307963E-1
1.110471719E0,6.443845481E-2,-3.398523331E-1,-1.231960654E-1
1.112476198E0,5.804686993E-2,-3.398523331E-1,-1.263918579E-1
1.114480677E0,5.698160827E-2,-3.387870789E-1,-1.338486969E-1
1.116485156E0,5.591634661E-2,-3.366565406E-1,-1.349139661E-1
1.118489635E0,5.272055417E-2,-3.366565406E-1,-1.402402818E-1
1.120494062E0,4.952476174E-2,-3.345260024E-1,-1.402402818E-1
1.122498489E0,4.739423841E-2,-3.345260024E-1,-1.445013285E-1
1.124502917E0,4.845950007E-2,-3.323954940E-1,-1.487623900E-1
1.126507344E0,4.739423841E-2,-3.355912864E-1,-1.540887058E-1
1.128511771E0,4.632897675E-2,-3.419828713E-1,-1.583497524E-1
1.130516198E0,4.526370764E-2,-3.473091722E-1,-1.604802907E-1
1.132520625E0,4.526370764E-2,-3.483744562E-1,-1.679371297E-1
1.134525052E0,4.313318431E-2,-3.537007570E-1,-1.721981913E-1
1.136529479E0,4.206792265E-2,-3.632881343E-1,-1.721981913E-1
1.138533906E0,4.100265354E-2,-3.728755116E-1,-1.743287146E-1
1.140538333E0,4.526370764E-2,-3.782018125E-1,-1.817855537E-1
1.142542760E0,4.419844598E-2,-3.899197280E-1,-1.839160919E-1
1.144547187E0,3.993739188E-2,-3.995071054E-1,-1.871118695E-1
1.146551614E0,4.313318431E-2,-4.154860377E-1,-1.935034543E-1
1.148556042E0,4.100265354E-2,-4.229428768E-1,-1.998950392E-1
1.150560469E0,3.674159944E-2,-4.293344617E-1,-1.977645159E-1
1.152564896E0,3.461107612E-2,-4.367913008E-1,-2.020255625E-1
1.154569323E0,2.608896978E-2,-4.495744705E-1,-1.988297701E-1
1.156573750E0,2.395844273E-2,-4.549008012E-1,-2.062866241E-1
1.158578177E0,1.863212511E-2,-4.580965936E-1,-2.052213550E-1
1.160582604E0,1.117528044E-2,-4.623576403E-1,-2.062866241E-1
1.162587031E0,4.783699289E-3,-4.612923861E-1,-2.084171474E-1
1.164591458E0,1.587908715E-3,-4.644881785E-1,-2.094824016E-1
1.166595885E0,-1.607881859E-3,-4.634228945E-1,-2.084171474E-1
1.168600312E0,-9.064726532E-3,-4.687492251E-1,-2.052213550E-1
1.170604739E0,-1.439104415E-2,-4.580965936E-1,-2.084171474E-1
1.172609167E0,-2.078262530E-2,-4.549008012E-1,-2.009603083E-1
1.174613594E0,-2.610894293E-2,-4.527702630E-1,-2.020255625E-1
1.176618021E0,-2.823946998E-2,-4.559660554E-1,-1.998950392E-1
1.178622448E0,-3.036999702E-2,-4.485092163E-1,-1.988297701E-1
1.180626875E0,-3.356578946E-2,-4.506397545E-1,-1.977645159E-1
1.182631302E0,-3.995737433E-2,-4.527702630E-1,-1.988297701E-1
1.184635729E0,-4.528369009E-2,-4.549008012E-1,-1.988297701E-1
1.186640156E0,-4.741421342E-2,-4.527702630E-1,-1.966992468E-1
1.188644583E0,-6.019737571E-2,-4.612923861E-1,-2.009603083E-1
1.190649010E0,-6.126264483E-2,-4.655534327E-1,-2.041560858E-1
1.192653437E0,-7.191527635E-2,-4.719450176E-1,-2.052213550E-1
1.194657864E0,-7.937212288E-2,-4.740755260E-1,-2.116129398E-1
1.196662292E0,-7.937212288E-2,-4.740755260E-1,-2.233308405E-1
1.198666719E0,-8.682896942E-2,-4.783366024E-1,-2.318529487E-1
1.200671146E0,-9.215528518E-2,-4.857934415E-1,-2.350487411E-1
1.202675573E0,-9.322054684E-2,-4.868586957E-1,-2.457013726E-1
1.204680000E0,-9.854686260E-2,-4.900544882E-1,-2.499624193E-1
1.206684427E0,-1.006773934E-1,-4.996418655E-1,-2.531582117E-1
1.208688854E0,-1.038731858E-1,-5.007071495E-1,-2.606150508E-1
1.210693281E0,-1.049384475E-1,-5.124250650E-1,-2.659413815E-1
1.212697708E0,-1.102647632E-1,-5.230777264E-1,-2.702024281E-1
1.214702135E0,-1.070689708E-1,-5.390566587E-1,-2.691371739E-1
1.216706562E0,-1.102647632E-1,-5.475788116E-1,-2.712676823E-1
1.218710989E0,-1.113300323E-1,-5.614272356E-1,-2.744634748E-1
1.220715417E0,-1.081342399E-1,-5.816671848E-1,-2.765940130E-1
1.222719844E0,-1.049384475E-1,-5.912545919E-1,-2.787245512E-1
1.224724271E0,-1.017426550E-1,-6.125598550E-1,-2.829855978E-1
1.226728698E0,-1.038731858E-1,-6.349303722E-1,-2.872466445E-1
1.228733125E0,-9.854686260E-2,-6.551703811E-1,-2.915076911E-1
1.230737552E0,-9.535107762E-2,-6.786062121E-1,-2.989645600E-1
1.232741979E0,-9.748160094E-2,-7.020419836E-1,-3.021603227E-1
1.234746406E0,-9.215528518E-2,-7.286735773E-1,-3.106824458E-1
1.236750833E0,-9.748160094E-2,-7.531746626E-1,-3.128129840E-1
1.238755260E0,-9.109002352E-2,-7.670230865E-1,-3.181392848E-1
1.240759687E0,-9.002475441E-2,-7.861977816E-1,-3.170740306E-1
1.242764114E0,-8.895949274E-2,-8.032420278E-1,-3.202698231E-1
1.244768542E0,-9.322054684E-2,-8.181557059E-1,-3.117477000E-1
1.246772969E0,-8.469843864E-2,-8.298736215E-1,-3.138782382E-1
1.248777396E0,-8.256791532E-2,-8.383957148E-1,-3.096171916E-1
1.250781823E0,-7.830686122E-2,-8.469178081E-1,-3.096171916E-1
1.252786250E0,-7.085001469E-2,-8.575704694E-1,-3.128129840E-1
1.254790677E0,-6.871949136E-2,-8.650273085E-1,-3.042908609E-1
1.256795104E0,-7.191527635E-2,-8.756799698E-1,-2.968340218E-1
1.258799531E0,-7.191527635E-2,-8.746146560E-1,-2.978992760E-1
1.260804010E0,-7.298053801E-2,-8.778104782E-1,-2.957687676E-1
1.262808489E0,-6.871949136E-2,-8.703536391E-1,-2.978992760E-1
1.264812969E0,-6.445842981E-2,-8.565052152E-1,-2.968340218E-1
1.266817448E0,-6.232790649E-2,-8.458525538E-1,-2.904424369E-1
1.268821927E0,-6.339316815E-2,-8.330693841E-1,-2.947034836E-1
1.270826406E0,-6.232790649E-2,-8.256125450E-1,-2.840508521E-1
1.272830885E0,-6.126264483E-2,-8.202862740E-1,-2.755287588E-1
1.274835364E0,-6.445842981E-2,-8.160251975E-1,-2.659413815E-1
1.276839844E0,-6.445842981E-2,-8.128293753E-1,-2.616803348E-1
1.278844323E0,-6.871949136E-2,-8.064377904E-1,-2.510276735E-1
1.280848802E0,-6.552369893E-2,-7.957851887E-1,-2.510276735E-1
1.282853281E0,-6.445842981E-2,-7.904588580E-1,-2.457013726E-1
1.284857760E0,-6.126264483E-2,-7.819367647E-1,-2.435708344E-1
1.286862239E0,-6.232790649E-2,-7.680883408E-1,-2.382445186E-1
1.288866719E0,-6.339316815E-2,-7.627620101E-1,-2.371792644E-1
1.290871198E0,-6.552369893E-2,-7.521094084E-1,-2.329182029E-1
1.292875677E0,-6.978475302E-2,-7.457178235E-1,-2.382445186E-1
1.294880156E0,-7.191527635E-2,-7.329346538E-1,-2.382445186E-1
1.296884635E0,-6.871949136E-2,-7.297388315E-1,-2.403750569E-1
1.298889114E0,-7.085001469E-2,-7.222819924E-1,-2.393097878E-1
1.300893594E0,-7.191527635E-2,-7.148251534E-1,-2.446361035E-1
1.302898073E0,-6.658896059E-2,-7.031072378E-1,-2.563540041E-1
1.304902552E0,-6.765422225E-2,-6.913893819E-1,-2.616803348E-1
1.306907031E0,-6.339316815E-2,-6.849977970E-1,-2.648761272E-1
1.308911510E0,-6.552369893E-2,-6.722146273E-1,-2.691371739E-1
1.310915989E0,-6.871949136E-2,-6.690188050E-1,-2.638108432E-1
1.312920469E0,-7.085001469E-2,-6.700840592E-1,-2.627455890E-1
1.314924948E0,-6.552369893E-2,-6.679535508E-1,-2.606150508E-1
1.316929427E0,-6.871949136E-2,-6.711493731E-1,-2.595497966E-1
1.318933906E0,-6.871949136E-2,-6.636925340E-1,-2.627455890E-1
1.320938385E0,-6.978475302E-2,-6.690188050E-1,-2.563540041E-1
1.322942864E0,-6.871949136E-2,-6.679535508E-1,-2.574192584E-1
1.324947344E0,-6.871949136E-2,-6.679535508E-1,-2.552887499E-1
1.326951823E0,-6.339316815E-2,-6.626272202E-1,-2.638108432E-1
1.328956302E0,-6.019737571E-2,-6.594314575E-1,-2.648761272E-1
1.330960781E0,-6.126264483E-2,-6.541051269E-1,-2.702024281E-1
1.332965260E0,-5.593632162E-2,-6.487787962E-1,-2.712676823E-1
1.334969687E0,-4.847948253E-2,-6.562356353E-1,-2.733982205E-1
1.336974114E0,-4.954474419E-2,-6.551703811E-1,-2.691371739E-1
1.338978542E0,-4.847948253E-2,-6.530398726E-1,-2.680718899E-1
1.340982969E0,-3.995737433E-2,-6.477135420E-1,-2.744634748E-1
1.342987396E0,-3.889210522E-2,-6.541051269E-1,-2.723329663E-1
1.344991823E0,-3.356578946E-2,-6.487787962E-1,-2.776592672E-1
1.346996250E0,-2.823946998E-2,-6.445177794E-1,-2.755287588E-1
1.349000677E0,-2.610894293E-2,-6.445177794E-1,-2.765940130E-1
1.351005104E0,-2.291315235E-2,-6.391914487E-1,-2.776592672E-1
1.353009531E0,-1.758683473E-2,-6.349303722E-1,-2.744634748E-1
1.355013958E0,-1.652157120E-2,-6.210819483E-1,-2.744634748E-1
1.357018385E0,-1.226051711E-2,-6.082987785E-1,-2.765940130E-1
1.359022812E0,-7.999463007E-3,-5.891240835E-1,-2.744634748E-1
1.361027239E0,-2.673145384E-3,-5.699493289E-1,-2.776592672E-1
1.363031667E0,5.226451904E-4,-5.571661592E-1,-2.733982205E-1
1.365036094E0,-5.426183343E-4,-5.401219130E-1,-2.733982205E-1
1.367040521E0,2.653172240E-3,-5.262734890E-1,-2.755287588E-1
1.369044948E0,1.011001691E-2,-5.124250650E-1,-2.723329663E-1
1.371045729E0,9.044753388E-3,-4.996418655E-1,-2.702024281E-1
1.373046510E0,9.044753388E-3,-4.857934415E-1,-2.659413815E-1
1.375047708E0,9.044753388E-3,-4.847281873E-1,-2.563540041E-1
1.377049427E0,1.011001691E-2,-4.687492251E-1,-2.510276735E-1
1.379051771E0,1.117528044E-2,-4.559660554E-1,-2.467666268E-1
1.381054792E0,9.044753388E-3,-4.442481697E-1,-2.382445186E-1
1.383058542E0,1.117528044E-2,-4.261386693E-1,-2.371792644E-1
1.385063021E0,7.979489863E-3,-4.133555293E-1,-2.329182029E-1
1.387068177E0,1.011001691E-2,-4.027028680E-1,-2.286571562E-1
1.389073958E0,9.044753388E-3,-4.037681520E-1,-2.222655714E-1
1.391080312E0,7.979489863E-3,-3.973765671E-1,-2.190697789E-1
1.393087135E0,7.979489863E-3,-3.931155205E-1,-2.158739865E-1
1.395094323E0,5.848962814E-3,-3.877891898E-1,-2.084171474E-1
1.397101719E0,2.653172240E-3,-3.835281432E-1,-2.052213550E-1
1.399109219E0,-1.607881859E-3,-3.845933974E-1,-2.073518783E-1
1.401116406E0,-3.738408908E-3,-3.792670965E-1,-2.073518783E-1
1.403120833E0,-7.999463007E-3,-3.803323507E-1,-2.084171474E-1
1.405125260E0,-9.064726532E-3,-3.664839268E-1,-2.062866241E-1
1.407129687E0,-1.545630768E-2,-3.664839268E-1,-2.052213550E-1
1.409134114E0,-1.865209825E-2,-3.547660112E-1,-2.062866241E-1
1.411138542E0,-2.078262530E-2,-3.515702486E-1,-2.041560858E-1
1.413142969E0,-2.291315235E-2,-3.419828713E-1,-2.062866241E-1
1.415147396E0,-2.291315235E-2,-3.302649558E-1,-2.052213550E-1
1.417151823E0,-2.504367940E-2,-3.164165318E-1,-2.084171474E-1
1.419156250E0,-2.504367940E-2,-3.057639003E-1,-2.148087323E-1
1.421160677E0,-2.184788883E-2,-2.908502221E-1,-2.212003022E-1
1.423165104E0,-1.758683473E-2,-2.833933830E-1,-2.265266180E-1
1.425169531E0,-2.078262530E-2,-2.759365141E-1,-2.275918871E-1
1.427173958E0,-1.758683473E-2,-2.716754675E-1,-2.393097878E-1
1.429178385E0,-1.332578063E-2,-2.610228360E-1,-2.488971651E-1
1.431182812E0,-5.868935958E-3,-2.482396960E-1,-2.648761272E-1
1.433187239E0,-4.803672433E-3,-2.375870645E-1,-2.776592672E-1
1.435191667E0,-5.426183343E-4,-2.162818015E-1,-2.883118987E-1
1.437196094E0,-5.868935958E-3,-2.152165323E-1,-2.968340218E-1
1.439200521E0,1.587908715E-3,-2.130860090E-1,-3.138782382E-1
1.441204948E0,9.044753388E-3,-2.141512632E-1,-3.255961239E-1
1.443209375E0,2.076265216E-2,-2.098902166E-1,-3.447708786E-1
1.445213802E0,2.502370626E-2,-2.120207399E-1,-3.564887643E-1
1.447218229E0,3.141528368E-2,-2.162818015E-1,-3.671414256E-1
1.449222656E0,3.887213022E-2,-2.173470557E-1,-3.756635189E-1
1.451227083E0,4.313318431E-2,-2.098902166E-1,-3.895119429E-1
1.453231510E0,5.165529251E-2,-2.088249475E-1,-3.969687819E-1
1.455235937E0,5.698160827E-2,-2.077596933E-1,-4.065561593E-1
1.457240364E0,6.550371647E-2,-2.066944242E-1,-4.172087908E-1
1.459244792E0,7.189530134E-2,-2.034986317E-1,-4.289267063E-1
1.461249219E0,7.828687876E-2,-2.034986317E-1,-4.417098463E-1
1.463253646E0,8.680898696E-2,-2.003028393E-1,-4.566235542E-1
1.465258073E0,9.426583350E-2,-1.939112544E-1,-4.736677706E-1
1.467262500E0,9.639635682E-2,-1.864544153E-1,-4.917772412E-1
1.469266927E0,1.102447808E-1,-1.736712605E-1,-5.098867416E-1
1.471271354E0,1.155711040E-1,-1.598228216E-1,-5.290614963E-1
1.473275781E0,1.283542663E-1,-1.406480819E-1,-5.556930304E-1
1.475280208E0,1.453984827E-1,-1.331912279E-1,-5.748677850E-1
1.477284635E0,1.507247984E-1,-1.118859574E-1,-5.940425396E-1
1.479289062E0,1.571163833E-1,-7.886278629E-2,-6.036298871E-1
1.481293489E0,1.624426991E-1,-6.607962400E-2,-6.164130569E-1
1.483297917E0,1.645732224E-1,-5.862277746E-2,-6.217393875E-1
1.485302344E0,1.709648073E-1,-6.075330824E-2,-6.260004640E-1
1.487306771E0,1.784216464E-1,-5.649225414E-2,-6.334573030E-1
1.489311198E0,1.837479621E-1,-6.288383156E-2,-6.334573030E-1
1.491315625E0,1.880090237E-1,-6.288383156E-2,-6.355878115E-1
1.493320052E0,1.890742779E-1,-6.927541643E-2,-6.451752186E-1
1.495324479E0,1.869437546E-1,-7.673226297E-2,-6.409141421E-1
1.497328906E0,1.805521846E-1,-8.099331707E-2,-6.473057270E-1
1.499333333E0,1.773563921E-1,-8.525437117E-2,-6.483709812E-1
1.501337760E0,1.656384915E-1,-8.631963283E-2,-6.483709812E-1
1.503342187E0,1.560511142E-1,-7.673226297E-2,-6.515667439E-1
1.505346614E0,1.496595293E-1,-6.607962400E-2,-6.558278203E-1
1.507351042E0,1.464637518E-1,-5.862277746E-2,-6.622194052E-1
1.509355469E0,1.390068978E-1,-4.903540760E-2,-6.654152274E-1
1.511359896E0,1.326153129E-1,-4.264383018E-2,-6.632846594E-1
1.513364323E0,1.219626814E-1,-3.625224903E-2,-6.643499136E-1
1.515368750E0,1.102447808E-1,-2.773014084E-2,-6.654152274E-1
1.517373177E0,9.959214926E-2,-2.986066788E-2,-6.590236425E-1
1.519377604E0,9.320056438E-2,-3.092592955E-2,-6.611541510E-1
1.521382031E0,7.935214043E-2,-2.773014084E-2,-6.505014896E-1
1.523386458E0,6.763423979E-2,-9.620659985E-3,-6.419793963E-1
1.525390885E0,5.059003085E-2,-4.294342361E-3,-6.345225573E-1
1.527395312E0,4.526370764E-2,-6.424869411E-3,-6.345225573E-1
1.529399739E0,4.313318431E-2,-1.388171408E-2,-6.323920488E-1
1.531404167E0,3.993739188E-2,-1.494697761E-2,-6.313267350E-1
1.533408594E0,3.567633778E-2,-2.666487545E-2,-6.238698959E-1
1.535413021E0,3.248054534E-2,-4.157856479E-2,-6.196088791E-1
1.537417448E0,1.756686158E-2,-5.223120004E-2,-6.196088791E-1
1.539421875E0,1.756686158E-2,-5.755751580E-2,-6.142825484E-1
1.541426302E0,1.330580749E-2,-6.075330824E-2,-6.185436249E-1
1.543430729E0,2.653172240E-3,-6.501436234E-2,-6.228046417E-1
1.545435208E0,-3.738408908E-3,-6.607962400E-2,-6.206741333E-1
1.547439687E0,-1.607881859E-3,-5.116593838E-2,-6.228046417E-1
1.549444167E0,-9.064726532E-3,-4.583961889E-2,-6.302614808E-1
1.551448646E0,-6.934199482E-3,-4.264383018E-2,-6.377183199E-1
1.553453125E0,-3.738408908E-3,-3.092592955E-2,-6.441099048E-1
1.555457604E0,-5.426183343E-4,-2.027329430E-2,-6.515667439E-1
1.557462083E0,5.226451904E-4,-1.068592351E-2,-6.579583287E-1
1.559466562E0,5.226451904E-4,-4.294342361E-3,-6.654152274E-1
1.561471042E0,5.848962814E-3,1.701092720E-2,-6.686109900E-1
1.563475521E0,5.848962814E-3,3.938146681E-2,-6.686109900E-1
1.565480000E0,4.783699289E-3,4.790357500E-2,-6.675457358E-1
1.567484479E0,3.718435764E-3,3.298988193E-2,-6.643499136E-1
1.569488958E0,1.437107101E-2,1.488040108E-2,-6.611541510E-1
1.571493437E0,1.650159806E-2,2.097238787E-3,-6.536973119E-1
1.573497917E0,2.076265216E-2,-8.555396460E-3,-6.515667439E-1
1.575502396E0,2.289317921E-2,-1.601224020E-2,-6.462404728E-1
1.577506875E0,1.863212511E-2,-2.773014084E-2,-6.398488879E-1
1.579511354E0,1.863212511E-2,-3.625224903E-2,-6.419793963E-1
1.581515833E0,1.969738863E-2,-3.731751069E-2,-6.366530657E-1
1.583520312E0,1.437107101E-2,-3.838277608E-2,-6.302614808E-1
1.585524792E0,1.011001691E-2,-5.329646170E-2,-6.185436249E-1
1.587529271E0,5.848962814E-3,-5.862277746E-2,-6.100214720E-1
1.589533750E0,1.117528044E-2,-6.821015477E-2,-6.036298871E-1
1.591538229E0,1.011001691E-2,-8.312384039E-2,-5.961730480E-1
1.593542708E0,5.848962814E-3,-9.271121025E-2,-5.876509547E-1
1.595547187E0,7.979489863E-3,-1.022985876E-1,-5.855204463E-1
1.597551667E0,7.979489863E-3,-1.076249033E-1,-5.833898783E-1
1.599556146E0,3.718435764E-3,-1.140164807E-1,-5.663456917E-1
1.601560625E0,7.979489863E-3,-1.257343888E-1,-5.631498694E-1
1.603565104E0,4.783699289E-3,-1.331912279E-1,-5.546277761E-1
1.605569583E0,1.587908715E-3,-1.385175586E-1,-5.493014455E-1
1.607574062E0,1.587908715E-3,-1.481049359E-1,-5.375835896E-1
1.609578542E0,-2.673145384E-3,-1.555617750E-1,-5.216045976E-1
1.611583021E0,-1.332578063E-2,-1.704754680E-1,-5.045604110E-1
1.613587500E0,-1.439104415E-2,-1.768670380E-1,-4.843204021E-1
1.615591979E0,-1.971736178E-2,-1.821933687E-1,-4.619498551E-1
1.617596458E0,-2.291315235E-2,-1.821933687E-1,-4.459709227E-1
1.619600885E0,-1.971736178E-2,-1.832586229E-1,-4.342530072E-1
1.621605312E0,-2.397841588E-2,-1.779323071E-1,-4.225351214E-1
1.623609739E0,-3.143525869E-2,-1.800628304E-1,-4.118824899E-1
1.625614167E0,-3.463105112E-2,-1.768670380E-1,-3.959035277E-1
1.627618594E0,-3.889210522E-2,-1.662144065E-1,-3.905771971E-1
1.629623021E0,-4.421842843E-2,-1.619533598E-1,-3.809898496E-1
1.631627448E0,-4.634895176E-2,-1.555617750E-1,-3.756635189E-1
1.633631875E0,-5.380579829E-2,-1.491701901E-1,-3.714024723E-1
1.635636302E0,-6.339316815E-2,-1.342564970E-1,-3.671414256E-1
1.637640729E0,-6.552369893E-2,-1.161470115E-1,-3.575540483E-1
1.639645156E0,-7.511106879E-2,-1.012333184E-1,-3.575540483E-1
1.641649583E0,-7.511106879E-2,-8.845015615E-2,-3.500971794E-1
1.643654010E0,-8.363317698E-2,-7.886278629E-2,-3.426403403E-1
1.645658437E0,-8.256791532E-2,-7.779752463E-2,-3.394445479E-1
1.647662864E0,-8.789423108E-2,-7.353647053E-2,-3.298572004E-1
1.649667292E0,-8.256791532E-2,-7.247120887E-2,-3.319877088E-1
1.651671719E0,-8.469843864E-2,-6.607962400E-2,-3.245308697E-1
1.653676146E0,-8.576370776E-2,-5.862277746E-2,-3.213350773E-1
1.655680573E0,-8.469843864E-2,-5.010067299E-2,-3.117477000E-1
1.657685000E0,-8.150264621E-2,-4.477435350E-2,-3.085519075E-1
1.659689427E0,-7.617633045E-2,-3.944803774E-2,-3.138782382E-1
1.661693854E0,-6.978475302E-2,-3.518698364E-2,-3.117477000E-1
1.663698281E0,-6.339316815E-2,-3.092592955E-2,-3.106824458E-1
1.665702708E0,-5.806685239E-2,-1.388171408E-2,-3.085519075E-1
1.667707135E0,-5.700159073E-2,3.162502311E-3,-3.085519075E-1
1.669711562E0,-6.019737571E-2,-3.229078837E-3,-3.074866533E-1
1.671715989E0,-4.847948253E-2,-2.666487545E-2,-3.096171916E-1
1.673720417E0,-4.208789766E-2,-4.690488428E-2,-3.032256067E-1
1.675724844E0,-3.995737433E-2,-7.247120887E-2,-3.053561151E-1
1.677729271E0,-3.250052407E-2,-8.099331707E-2,-2.978992760E-1
1.679733698E0,-3.036999702E-2,-9.590700269E-2,-2.947034836E-1
1.681738125E0,-3.036999702E-2,-1.012333184E-1,-2.808550596E-1
1.683742552E0,-2.610894293E-2,-1.054943725E-1,-2.755287588E-1
1.685746979E0,-1.865209825E-2,-1.065596342E-1,-2.723329663E-1
1.687751406E0,-1.758683473E-2,-1.182775348E-1,-2.691371739E-1
1.689755833E0,-1.332578063E-2,-1.246691197E-1,-2.659413815E-1
1.691760260E0,-6.934199482E-3,-1.342564970E-1,-2.648761272E-1
1.693764687E0,-5.426183343E-4,-1.374522895E-1,-2.638108432E-1
1.695769114E0,5.848962814E-3,-1.502354592E-1,-2.616803348E-1
1.697773542E0,1.011001691E-2,-1.576922983E-1,-2.595497966E-1
1.699777969E0,1.543633454E-2,-1.683449447E-1,-2.638108432E-1
1.701782396E0,2.182791568E-2,-1.747365147E-1,-2.627455890E-1
1.703786823E0,2.608896978E-2,-1.779323071E-1,-2.616803348E-1
1.705791250E0,2.821949683E-2,-1.885849386E-1,-2.627455890E-1
1.707795677E0,3.461107612E-2,-1.992375851E-1,-2.638108432E-1
1.709800104E0,3.780686855E-2,-2.003028393E-1,-2.670066357E-1
1.711804531E0,4.526370764E-2,-2.077596933E-1,-2.712676823E-1
1.713808958E0,4.632897675E-2,-2.003028393E-1,-2.765940130E-1
1.715813385E0,4.739423841E-2,-2.034986317E-1,-2.723329663E-1
1.717817812E0,5.272055417E-2,-1.992375851E-1,-2.755287588E-1
1.719822239E0,6.017740071E-2,-2.024333775E-1,-2.829855978E-1
1.721826667E0,6.656897813E-2,-2.088249475E-1,-2.819203138E-1
1.723831094E0,6.869950891E-2,-2.066944242E-1,-2.861813903E-1
1.725835521E0,7.509108633E-2,-2.024333775E-1,-2.947034836E-1
1.727839948E0,8.041740954E-2,-2.013681084E-1,-2.978992760E-1
1.729844375E0,8.361319453E-2,-2.003028393E-1,-2.957687676E-1
1.731848802E0,9.107004106E-2,-2.003028393E-1,-2.978992760E-1
1.733853229E0,9.959214926E-2,-1.992375851E-1,-2.989645600E-1
1.735857656E0,9.959214926E-2,-2.024333775E-1,-3.032256067E-1
1.737862083E0,1.091795191E-1,-2.045639008E-1,-3.085519075E-1
1.739866510E0,1.059837341E-1,-1.843238920E-1,-3.032256067E-1
1.741870937E0,1.059837341E-1,-1.587575674E-1,-3.074866533E-1
1.743875364E0,1.091795191E-1,-1.630186141E-1,-3.138782382E-1
1.745879792E0,1.102447808E-1,-1.768670380E-1,-3.181392848E-1
1.747884219E0,1.145058423E-1,-1.832586229E-1,-3.224003315E-1
1.749888646E0,1.187668890E-1,-1.939112544E-1,-3.202698231E-1
1.751893073E0,1.219626814E-1,-1.971070468E-1,-3.234656155E-1
1.753897500E0,1.262237430E-1,-1.992375851E-1,-3.213350773E-1
1.755901927E0,1.262237430E-1,-2.024333775E-1,-3.266614079E-1
1.757906354E0,1.294195354E-1,-1.960417926E-1,-3.255961239E-1
1.759910833E0,1.368763745E-1,-1.971070468E-1,-3.341182470E-1
1.761915312E0,1.400721669E-1,-1.992375851E-1,-3.362487555E-1
1.763919792E0,1.379416287E-1,-2.066944242E-1,-3.394445479E-1
1.765924271E0,1.390068978E-1,-2.056291550E-1,-3.351835012E-1
1.767928750E0,1.453984827E-1,-2.066944242E-1,-3.394445479E-1
1.769933229E0,1.422026902E-1,-2.120207399E-1,-3.351835012E-1
1.771937708E0,1.443332136E-1,-2.003028393E-1,-3.426403403E-1
1.773942187E0,1.464637518E-1,-1.853891611E-1,-3.394445479E-1
1.775946667E0,1.443332136E-1,-1.726059914E-1,-3.490319252E-1
1.777951146E0,1.422026902E-1,-1.789975762E-1,-3.500971794E-1
1.779955625E0,1.379416287E-1,-1.885849386E-1,-3.607498407E-1
1.781960104E0,1.411374211E-1,-1.939112544E-1,-3.628803492E-1
1.783964583E0,1.400721669E-1,-1.981723160E-1,-3.692719340E-1
1.785969062E0,1.432679594E-1,-2.066944242E-1,-3.660761416E-1
1.787973542E0,1.422026902E-1,-2.141512632E-1,-3.660761416E-1
1.789978021E0,1.485942751E-1,-2.184123248E-1,-3.724677265E-1
1.791982500E0,1.507247984E-1,-2.269344330E-1,-3.788593113E-1
1.793986979E0,1.560511142E-1,-2.216081172E-1,-3.841856122E-1
1.795991458E0,1.581816375E-1,-2.258691639E-1,-3.895119429E-1
1.797995937E0,1.549858451E-1,-2.333260179E-1,-3.831203580E-1
1.800000417E0,1.581816375E-1,-2.258691639E-1,-3.777940571E-1
1.802004896E0,1.613774300E-1,-2.301302254E-1,-3.650108874E-1
1.804009375E0,1.592469066E-1,-2.269344330E-1,-3.522277176E-1
1.806013854E0,1.677690148E-1,-2.184123248E-1,-3.490319252E-1
1.808018333E0,1.677690148E-1,-2.322607487E-1,-3.522277176E-1
1.810022812E0,1.720300615E-1,-2.365218103E-1,-3.500971794E-1
1.812027292E0,1.730953306E-1,-2.429133803E-1,-3.500971794E-1
1.814031771E0,1.741605997E-1,-2.429133803E-1,-3.500971794E-1
1.816036250E0,1.677690148E-1,-2.439786494E-1,-3.373140395E-1
1.818040729E0,1.624426991E-1,-2.450439036E-1,-3.319877088E-1
1.820045208E0,1.656384915E-1,-2.375870645E-1,-3.287919164E-1
1.822049687E0,1.667037457E-1,-2.397175878E-1,-3.234656155E-1
1.824054167E0,1.677690148E-1,-2.471744418E-1,-3.096171916E-1
1.826058646E0,1.603121758E-1,-2.439786494E-1,-3.085519075E-1
1.828063125E0,1.635079682E-1,-2.397175878E-1,-3.021603227E-1
1.830067604E0,1.613774300E-1,-2.439786494E-1,-2.947034836E-1
1.832072083E0,1.624426991E-1,-2.386523336E-1,-2.904424369E-1
1.834076510E0,1.592469066E-1,-2.386523336E-1,-2.755287588E-1
1.836080937E0,1.560511142E-1,-2.333260179E-1,-2.680718899E-1
1.838085364E0,1.528553218E-1,-2.354565412E-1,-2.488971651E-1
1.840089792E0,1.507247984E-1,-2.418481261E-1,-2.371792644E-1
1.842094219E0,1.475290060E-1,-2.397175878E-1,-2.201350480E-1
1.844098646E0,1.464637518E-1,-2.343912721E-1,-2.030908316E-1
1.846103073E0,1.432679594E-1,-2.311954796E-1,-1.860466152E-1
1.848107500E0,1.475290060E-1,-2.184123248E-1,-1.700676531E-1
1.850111927E0,1.464637518E-1,-2.162818015E-1,-1.594150215E-1
1.852116354E0,1.507247984E-1,-2.216081172E-1,-1.508929133E-1
1.854120781E0,1.528553218E-1,-2.258691639E-1,-1.413055360E-1
1.856125208E0,1.485942751E-1,-2.237386405E-1,-1.263918579E-1
1.858129635E0,1.539205909E-1,-2.279996872E-1,-1.210655347E-1
1.860134062E0,1.581816375E-1,-2.311954796E-1,-1.104129031E-1
1.862138489E0,1.667037457E-1,-2.333260179E-1,-1.061518490E-1
1.864142917E0,1.688342839E-1,-2.311954796E-1,-9.336868674E-2
1.866147344E0,1.709648073E-1,-2.343912721E-1,-8.910763264E-2
1.868151771E0,1.752258539E-1,-2.322607487E-1,-7.632447034E-2
1.870156198E0,1.816174388E-1,-2.343912721E-1,-7.206341624E-2
1.872160625E0,1.869437546E-1,-2.354565412E-1,-6.460656971E-2
1.874165052E0,1.954658628E-1,-2.343912721E-1,-5.714971945E-2
1.876169479E0,1.975964010E-1,-2.397175878E-1,-4.969287664E-2
1.878173906E0,2.007921785E-1,-2.397175878E-1,-4.969287664E-2
1.880178333E0,2.061184943E-1,-2.418481261E-1,-3.690971434E-2
1.882182760E0,2.125100791E-1,-2.354565412E-1,-3.690971434E-2
1.884187187E0,2.189016640E-1,-2.311954796E-1,-2.945287153E-2
1.886191614E0,2.231627107E-1,-2.365218103E-1,-2.838760801E-2
1.888196042E0,2.242279798E-1,-2.365218103E-1,-2.306129038E-2
1.890200469E0,2.306195647E-1,-2.418481261E-1,-1.134339254E-2
1.892204896E0,2.295542955E-1,-2.407828569E-1,-1.134339254E-2
1.894209323E0,2.348806113E-1,-2.407828569E-1,3.570297500E-3
1.896213750E0,2.370111495E-1,-2.397175878E-1,6.766087376E-3
1.898218177E0,2.348806113E-1,-2.397175878E-1,1.741872355E-2
1.900222604E0,2.370111495E-1,-2.365218103E-1,2.700609528E-2
1.902227031E0,2.412721962E-1,-2.354565412E-1,3.339767829E-2
1.904231458E0,2.380764037E-1,-2.290649563E-1,4.511557892E-2
1.906235885E0,2.380764037E-1,-2.226733714E-1,5.257242173E-2
1.908240312E0,2.370111495E-1,-2.088249475E-1,6.002926081E-2
1.910244739E0,2.380764037E-1,-2.034986317E-1,6.748610735E-2
1.912249167E0,2.370111495E-1,-1.992375851E-1,7.068189979E-2
1.914253594E0,2.359458804E-1,-1.853891611E-1,7.600821555E-2
1.916258021E0,2.359458804E-1,-1.779323071E-1,8.239980042E-2
1.918262448E0,2.306195647E-1,-1.619533598E-1,9.092190862E-2
1.920266875E0,2.295542955E-1,-1.481049359E-1,9.624822438E-2
1.922271302E0,2.242279798E-1,-1.363870353E-1,1.058355942E-1
1.924275729E0,2.242279798E-1,-1.182775348E-1,1.111619100E-1
1.926280156E0,2.199669331E-1,-9.590700269E-2,1.250103414E-1
1.928284583E0,2.157058716E-1,-8.099331707E-2,1.324671805E-1
1.930289010E0,2.125100791E-1,-6.075330824E-2,1.463156044E-1
1.932293437E0,2.114448249E-1,-3.944803774E-2,1.569682360E-1
1.934297864E0,2.061184943E-1,-2.559961379E-2,1.686861366E-1
1.936302292E0,2.071837634E-1,-6.424869411E-3,1.750777215E-1
1.938306719E0,2.039879709E-1,8.488819934E-3,1.899914145E-1
1.940311146E0,2.007921785E-1,2.659830451E-2,1.985135227E-1
1.942315573E0,1.965311319E-1,4.683831334E-2,2.070356309E-1
1.944320000E0,1.901395470E-1,5.962146819E-2,2.187535316E-1
1.946324427E0,1.944006085E-1,7.453516126E-2,2.272756398E-1
1.948328854E0,1.837479621E-1,8.731832355E-2,2.389935404E-1
1.950333281E0,1.837479621E-1,1.022320092E-1,2.485808879E-1
1.952337708E0,1.805521846E-1,1.182109639E-1,2.539072335E-1
1.954342135E0,1.762911230E-1,1.320593804E-1,2.666903734E-1
1.956346562E0,1.709648073E-1,1.416467428E-1,2.741472423E-1
1.958350989E0,1.698995382E-1,1.533646435E-1,2.847998738E-1
1.960355417E0,1.624426991E-1,1.661478132E-1,2.901261747E-1
1.962359844E0,1.603121758E-1,1.768004447E-1,2.986482978E-1
1.964364271E0,1.571163833E-1,1.895835996E-1,3.103661835E-1
1.966368698E0,1.528553218E-1,1.927793920E-1,3.220840991E-1
1.968373125E0,1.475290060E-1,2.023667693E-1,3.327367306E-1
1.970377552E0,1.453984827E-1,2.087583542E-1,3.391283154E-1
1.972381979E0,1.411374211E-1,2.108888775E-1,3.540419936E-1
1.974386458E0,1.336805820E-1,2.119541466E-1,3.678904176E-1
1.976390937E0,1.336805820E-1,2.172804624E-1,3.764125407E-1
1.978395417E0,1.294195354E-1,2.151499391E-1,3.955872655E-1
1.980399896E0,1.262237430E-1,2.119541466E-1,4.073051810E-1
1.982404375E0,1.219626814E-1,2.023667693E-1,4.232841134E-1
1.984408854E0,1.177016273E-1,1.885183454E-1,4.371325374E-1
1.986413333E0,1.166363657E-1,1.842572838E-1,4.541767538E-1
1.988417812E0,1.081142575E-1,1.682783365E-1,4.754820466E-1
1.990422292E0,1.038532034E-1,1.491035968E-1,4.957220554E-1
1.992426771E0,1.081142575E-1,1.246025339E-1,5.180925727E-1
1.994431250E0,9.852688760E-2,1.064930707E-1,5.404630899E-1
1.996435729E0,9.852688760E-2,7.666568458E-2,5.649641752E-1
1.998440208E0,9.533109516E-2,5.322989076E-2,5.947915316E-1
2.000444687E0,9.426583350E-2,2.233725041E-2,6.224883795E-1
2.002449167E0,8.680898696E-2,-8.555396460E-3,6.512505412E-1
2.004453646E0,8.787424862E-2,-4.370909184E-2,6.874694824E-1
2.006458125E0,7.935214043E-2,-7.992804796E-2,7.130358219E-1
2.008462604E0,7.935214043E-2,-1.182775348E-1,7.300800085E-1
2.010467083E0,7.828687876E-2,-1.555617750E-1,7.737558484E-1
2.012471562E0,8.041740954E-2,-1.949765235E-1,8.078442812E-1
2.014476042E0,7.828687876E-2,-2.386523336E-1,8.398021460E-1
2.016480521E0,7.509108633E-2,-2.801975906E-1,8.749558330E-1
2.018485000E0,7.296056300E-2,-3.238733709E-1,9.069137573E-1
2.020489479E0,7.509108633E-2,-3.664839268E-1,9.410021901E-1
2.022493958E0,7.296056300E-2,-4.080291986E-1,9.750906229E-1
2.024498437E0,6.976477057E-2,-4.485092163E-1,1.005983353E0
2.026502917E0,7.189530134E-2,-4.825976491E-1,1.041136980E0
2.028507396E0,7.296056300E-2,-5.262734890E-1,1.073094964E0
2.030511875E0,7.083003223E-2,-5.624924898E-1,1.095465422E0
2.032516354E0,6.869950891E-2,-5.997766852E-1,1.125292897E0
2.034520833E0,7.296056300E-2,-6.296041012E-1,1.150859118E0
2.036525312E0,7.189530134E-2,-6.551703811E-1,1.177490711E0
2.038529792E0,7.083003223E-2,-6.860630512E-1,1.193469763E0
2.040534271E0,7.189530134E-2,-7.105640769E-1,1.221166611E0
2.042538750E0,7.402582467E-2,-7.339999080E-1,1.230753899E0
2.044543229E0,7.828687876E-2,-7.478483319E-1,1.242471814E0
2.046547708E0,7.828687876E-2,-7.648925185E-1,1.258450747E0
2.048552187E0,8.361319453E-2,-7.808715105E-1,1.268038154E0
2.050556614E0,9.213530272E-2,-7.957851887E-1,1.273364425E0
2.052561042E0,9.746162593E-2,-8.032420278E-1,1.276560307E0
2.054565469E0,1.027879417E-1,-8.075031042E-1,1.274429798E0
2.056569896E0,1.113100499E-1,-8.149599433E-1,1.278690815E0
2.058574323E0,1.187668890E-1,-8.202862740E-1,1.265907645E0
2.060578750E0,1.262237430E-1,-8.245472908E-1,1.255254984E0
2.062583177E0,1.336805820E-1,-8.288083673E-1,1.244602323E0
2.064587604E0,1.400721669E-1,-8.330693841E-1,1.232884407E0
2.066592031E0,1.496595293E-1,-8.330693841E-1,1.209448695E0
2.068596458E0,1.571163833E-1,-8.266777992E-1,1.190273881E0
2.070600885E0,1.635079682E-1,-8.256125450E-1,1.161511779E0
2.072605312E0,1.762911230E-1,-8.213515282E-1,1.130619168E0
2.074609739E0,1.912048161E-1,-8.160251975E-1,1.099726558E0
2.076614167E0,1.965311319E-1,-8.149599433E-1,1.066703320E0
2.078618594E0,2.050532401E-1,-8.075031042E-1,1.032614946E0
2.080623021E0,2.114448249E-1,-8.075031042E-1,9.910695553E-1
2.082627448E0,2.220974565E-1,-8.011115193E-1,9.484590292E-1
2.084631875E0,2.210321873E-1,-8.021767735E-1,9.079790115E-1
2.086636302E0,2.252932489E-1,-7.979156971E-1,8.664337397E-1
2.088640729E0,2.252932489E-1,-8.000462651E-1,8.206273913E-1
2.090645156E0,2.242279798E-1,-7.925893664E-1,7.726905346E-1
2.092649583E0,2.284890413E-1,-7.883283496E-1,7.247536778E-1
2.094654010E0,2.306195647E-1,-7.798062563E-1,6.736210585E-1
2.096658437E0,2.263585031E-1,-7.734146714E-1,6.203578711E-1
2.098662864E0,2.252932489E-1,-7.702188492E-1,5.607030988E-1
2.100667292E0,2.306195647E-1,-7.616967559E-1,5.085052252E-1
2.102671719E0,2.284890413E-1,-7.627620101E-1,4.552420378E-1
2.104676146E0,2.316848338E-1,-7.606315017E-1,4.009135962E-1
2.106680573E0,2.295542955E-1,-7.510440946E-1,3.433893621E-1
2.108685000E0,2.263585031E-1,-7.382609248E-1,2.975830436E-1
2.110689427E0,2.252932489E-1,-7.308040857E-1,2.368630022E-1
2.112693854E0,2.189016640E-1,-7.254778147E-1,1.878608912E-1
2.114698281E0,2.167711407E-1,-7.233472466E-1,1.207492799E-1
2.116702708E0,2.082490325E-1,-7.233472466E-1,7.281242311E-2
2.118707135E0,2.007921785E-1,-7.201514840E-1,1.741872355E-2
2.120711562E0,1.975964010E-1,-7.105640769E-1,-2.732234448E-2
2.122715989E0,1.933353394E-1,-7.094988227E-1,-7.099814713E-2
2.124720417E0,1.944006085E-1,-7.094988227E-1,-1.200002730E-1
2.126724844E0,1.922700703E-1,-7.105640769E-1,-1.572844982E-1
2.128729271E0,2.007921785E-1,-7.126946449E-1,-1.860466152E-1
2.130733698E0,2.061184943E-1,-7.254778147E-1,-2.201350480E-1
2.132738125E0,2.146406174E-1,-7.244125009E-1,-2.552887499E-1
2.134742552E0,2.327500880E-1,-7.254778147E-1,-2.904424369E-1
2.136746979E0,2.497943193E-1,-7.329346538E-1,-3.213350773E-1
2.138751406E0,2.732301354E-1,-7.308040857E-1,-3.575540483E-1
2.140755833E0,2.924048901E-1,-7.329346538E-1,-3.927077353E-1
2.142760260E0,3.137101531E-1,-7.233472466E-1,-4.331877530E-1
2.144764687E0,3.296891153E-1,-7.222819924E-1,-4.779288173E-1
2.146769114E0,3.414070010E-1,-7.212167382E-1,-5.162783265E-1
2.148773542E0,3.520596325E-1,-7.233472466E-1,-5.599541068E-1
2.150777969E0,3.701691031E-1,-7.393262386E-1,-6.057604551E-1
2.152782396E0,3.850828111E-1,-7.499788404E-1,-6.654152274E-1
2.154786823E0,4.021270275E-1,-7.574356794E-1,-7.272005081E-1
2.156791250E0,4.202364981E-1,-7.776756883E-1,-7.900510430E-1
2.158795677E0,4.404765069E-1,-7.872630954E-1,-8.539668322E-1
2.160800104E0,4.564554691E-1,-8.011115193E-1,-9.168173671E-1
2.162804531E0,4.713691473E-1,-8.192209601E-1,-9.732763767E-1
2.164808958E0,4.788259864E-1,-8.373304605E-1,-1.031865835E0
2.166813385E0,4.884133637E-1,-8.597009778E-1,-1.089390039E0
2.168817812E0,4.937396944E-1,-8.842020631E-1,-1.133065820E0
2.170822239E0,4.948049486E-1,-9.193557501E-1,-1.179937363E0
2.172826667E0,4.969354868E-1,-9.598357677E-1,-1.217221618E0
2.174831094E0,4.926744103E-1,-1.002446294E0,-1.251310110E0
2.176835521E0,4.830870330E-1,-1.045056701E0,-1.276876450E0
2.178839948E0,4.713691473E-1,-1.084471464E0,-1.297116399E0
2.180844375E0,4.575207233E-1,-1.122820973E0,-1.307769060E0
2.182848802E0,4.372807145E-1,-1.165431499E0,-1.317356467E0
2.184853281E0,4.170407057E-1,-1.210172534E0,-1.325878501E0
2.186857760E0,3.968006968E-1,-1.254913688E0,-1.331204891E0
2.188862239E0,3.669733107E-1,-1.303915739E0,-1.330139637E0
2.190866719E0,3.509943783E-1,-1.358244181E0,-1.326943755E0
2.192871198E0,3.254280388E-1,-1.411507368E0,-1.324813247E0
2.194875677E0,3.030575216E-1,-1.464770555E0,-1.318421721E0
2.196880156E0,2.796217203E-1,-1.520164251E0,-1.312030077E0
2.198884635E0,2.508595884E-1,-1.573427439E0,-1.306703806E0
2.200889114E0,2.210321873E-1,-1.629886389E0,-1.297116399E0
2.202893594E0,1.880090237E-1,-1.686345339E0,-1.287528992E0
2.204898073E0,1.517900676E-1,-1.737478018E0,-1.280072212E0
2.206902552E0,1.177016273E-1,-1.788610697E0,-1.273680568E0
2.208907031E0,7.828687876E-2,-1.847200155E0,-1.260897398E0
2.210911510E0,4.526370764E-2,-1.902593851E0,-1.249179602E0
2.212915989E0,9.044753388E-3,-1.959052801E0,-1.244918466E0
2.214920469E0,-2.397841588E-2,-2.009120226E0,-1.235331178E0
2.216924948E0,-5.487105995E-2,-2.064513922E0,-1.224678516E0
2.218929427E0,-8.469843864E-2,-2.119907618E0,-1.223613262E0
2.220933906E0,-1.134605557E-1,-2.168909788E0,-1.219352126E0
2.222938385E0,-1.400921494E-1,-2.212585449E0,-1.218286872E0
2.224942864E0,-1.667237282E-1,-2.259457111E0,-1.216156363E0
2.226947344E0,-1.954858452E-1,-2.308459282E0,-1.219352126E0
2.228951823E0,-2.114647925E-1,-2.347873926E0,-1.220417380E0
2.230956302E0,-2.349005938E-1,-2.387288809E0,-1.223613262E0
2.232960781E0,-2.594016194E-1,-2.432029724E0,-1.220417380E0
2.234965260E0,-2.764458358E-1,-2.463987827E0,-1.226809025E0
2.236969739E0,-2.956205904E-1,-2.492749929E0,-1.230004787E0
2.238974219E0,-3.115995526E-1,-2.530034065E0,-1.227874279E0
2.240978698E0,-3.275784850E-1,-2.557730913E0,-1.231070042E0
2.242983177E0,-3.424921930E-1,-2.585427761E0,-1.227874279E0
2.244987656E0,-3.456879854E-1,-2.609928846E0,-1.232135296E0
2.246992135E0,-3.595364094E-1,-2.625907898E0,-1.225743771E0
2.248996614E0,-3.723195493E-1,-2.647212982E0,-1.220417380E0
2.251001094E0,-3.797764182E-1,-2.654670000E0,-1.216156363E0
2.253005573E0,-3.840374649E-1,-2.665322542E0,-1.210830092E0
2.255010052E0,-3.893637657E-1,-2.682366848E0,-1.206568956E0
2.257014531E0,-3.968206346E-1,-2.693019390E0,-1.199112177E0
2.259019010E0,-4.010816813E-1,-2.700476170E0,-1.194851160E0
2.261023489E0,-4.053427279E-1,-2.711128950E0,-1.187394261E0
2.263027917E0,-4.127995670E-1,-2.715389967E0,-1.181002736E0
2.265032344E0,-4.213216901E-1,-2.726042509E0,-1.171415329E0
2.267036771E0,-4.309090674E-1,-2.735630035E0,-1.162893176E0
2.269041198E0,-4.426269531E-1,-2.739891052E0,-1.156501651E0
2.271045625E0,-4.490185380E-1,-2.740956306E0,-1.154371142E0
2.273050052E0,-4.660627544E-1,-2.748413086E0,-1.146914244E0
2.275054479E0,-4.788459241E-1,-2.752674103E0,-1.141587973E0
2.277058906E0,-4.948248565E-1,-2.756935120E0,-1.140522718E0
2.279063333E0,-5.086733103E-1,-2.762261629E0,-1.137326837E0
2.281067760E0,-5.267828107E-1,-2.768653154E0,-1.132000566E0
2.283072187E0,-5.406312346E-1,-2.771848917E0,-1.126674294E0
2.285076614E0,-5.566101670E-1,-2.775044680E0,-1.123478413E0
2.287081042E0,-5.725891590E-1,-2.780370951E0,-1.118152142E0
2.289085469E0,-5.928291678E-1,-2.786762476E0,-1.112825871E0
2.291089896E0,-6.120038629E-1,-2.788893223E0,-1.109629989E0
2.293094323E0,-6.258522868E-1,-2.784631968E0,-1.104303718E0
2.295098750E0,-6.460922956E-1,-2.788893223E0,-1.100042701E0
2.297103177E0,-6.610060334E-1,-2.777175188E0,-1.095781565E0
2.299107604E0,-6.769849658E-1,-2.770783663E0,-1.087259531E0
2.301112031E0,-6.908333898E-1,-2.764392138E0,-1.086194277E0
2.303116458E0,-7.057470679E-1,-2.752674103E0,-1.078737378E0
2.305120885E0,-7.185302377E-1,-2.740956306E0,-1.071280599E0
2.307125312E0,-7.323786616E-1,-2.722846746E0,-1.065954208E0
2.309129739E0,-7.409007549E-1,-2.703671932E0,-1.064888954E0
2.311134167E0,-7.504881620E-1,-2.679171085E0,-1.058497429E0
2.313138594E0,-7.590102553E-1,-2.658931017E0,-1.051040530E0
2.315143021E0,-7.643365860E-1,-2.640821457E0,-1.047844768E0
2.317147448E0,-7.675323486E-1,-2.614189863E0,-1.038257360E0
2.319151875E0,-7.675323486E-1,-2.589688778E0,-1.032931089E0
2.321156302E0,-7.728586793E-1,-2.561991930E0,-1.024408937E0
2.323160729E0,-7.654018402E-1,-2.532164574E0,-1.020147920E0
2.325165156E0,-7.696628571E-1,-2.504467726E0,-1.011625767E0
2.327169583E0,-7.685976028E-1,-2.477836132E0,-1.002038360E0
2.329174010E0,-7.664670944E-1,-2.453335047E0,-9.967121482E-1
2.331178437E0,-7.664670944E-1,-2.421377182E0,-9.892553091E-1
2.333182864E0,-7.664670944E-1,-2.388354063E0,-9.807332158E-1
2.335187292E0,-7.632713318E-1,-2.361722469E0,-9.764721394E-1
2.337191719E0,-7.632713318E-1,-2.327634096E0,-9.679500461E-1
2.339196146E0,-7.675323486E-1,-2.299937248E0,-9.594279528E-1
2.341200573E0,-7.749891877E-1,-2.267979145E0,-9.572973847E-1
2.343205000E0,-7.739239335E-1,-2.237086535E0,-9.487752914E-1
2.345209427E0,-7.771197557E-1,-2.210454941E0,-9.445142150E-1
2.347213854E0,-7.792502642E-1,-2.178497076E0,-9.338616133E-1
2.349218281E0,-7.824460268E-1,-2.141212940E0,-9.317311049E-1
2.351222708E0,-7.856418490E-1,-2.107124567E0,-9.253395200E-1
2.353227135E0,-7.909681797E-1,-2.079427719E0,-9.168173671E-1
2.355231562E0,-7.952291965E-1,-2.045339108E0,-9.104257822E-1
2.357235989E0,-8.016207814E-1,-2.014446497E0,-8.955121040E-1
2.359240417E0,-7.994902730E-1,-1.976097107E0,-8.880552649E-1
2.361244844E0,-8.080123663E-1,-1.946269631E0,-8.731415868E-1
2.363249271E0,-8.090776205E-1,-1.910050750E0,-8.656847477E-1
2.365253698E0,-8.154692054E-1,-1.874897003E0,-8.539668322E-1
2.367258125E0,-8.154692054E-1,-1.838678002E0,-8.390531540E-1
2.369262552E0,-8.165344596E-1,-1.801393867E0,-8.262699842E-1
2.371266979E0,-8.218607903E-1,-1.774762273E0,-8.081604838E-1
2.373271406E0,-8.271871209E-1,-1.746000171E0,-7.953773737E-1
2.375275833E0,-8.293176293E-1,-1.714042187E0,-7.836594582E-1
2.377280260E0,-8.271871209E-1,-1.683149576E0,-7.655499578E-1
2.379284687E0,-8.325134516E-1,-1.653322220E0,-7.517015338E-1
2.381289114E0,-8.325134516E-1,-1.621364355E0,-7.346573472E-1
2.383293542E0,-8.325134516E-1,-1.593667388E0,-7.197436094E-1
2.385297969E0,-8.303828835E-1,-1.558513761E0,-7.069604993E-1
2.387302396E0,-8.261218667E-1,-1.524425268E0,-6.920467615E-1
2.389306823E0,-8.261218667E-1,-1.486075878E0,-6.739373207E-1
2.391311250E0,-8.282523751E-1,-1.451987386E0,-6.600888968E-1
2.393315729E0,-8.282523751E-1,-1.420029521E0,-6.430446506E-1
2.395320208E0,-8.229260445E-1,-1.389136791E0,-6.334573030E-1
2.397324687E0,-8.229260445E-1,-1.350787401E0,-6.196088791E-1
2.399329167E0,-8.186650276E-1,-1.314568400E0,-6.164130569E-1
2.401333646E0,-8.229260445E-1,-1.275153637E0,-6.036298871E-1
2.403338125E0,-8.186650276E-1,-1.236804128E0,-5.993688703E-1
2.405342604E0,-8.207955360E-1,-1.203781009E0,-5.919120312E-1
2.407347083E0,-8.207955360E-1,-1.163300991E0,-5.855204463E-1
2.409351562E0,-8.239912987E-1,-1.126016736E0,-5.769983530E-1
2.411356042E0,-8.250566125E-1,-1.091928363E0,-5.727372766E-1
2.413360521E0,-8.282523751E-1,-1.059970379E0,-5.642151833E-1
2.415365000E0,-8.325134516E-1,-1.025882006E0,-5.567583442E-1
2.417369479E0,-8.325134516E-1,-9.896631241E-1,-5.450404286E-1
2.419373958E0,-8.378397226E-1,-9.534441829E-1,-5.365183353E-1
2.421378437E0,-8.442313075E-1,-9.172252417E-1,-5.237351656E-1
2.423382917E0,-8.538187146E-1,-8.863325715E-1,-5.088214874E-1
2.425387396E0,-8.559492230E-1,-8.522441387E-1,-5.002993941E-1
2.427391875E0,-8.655366302E-1,-8.181557059E-1,-4.843204021E-1
2.429396354E0,-8.751239777E-1,-7.904588580E-1,-4.640803933E-1
2.431400833E0,-8.825808167E-1,-7.670230865E-1,-4.438403845E-1
2.433405312E0,-8.879071474E-1,-7.457178235E-1,-4.278614223E-1
2.435409792E0,-8.985597491E-1,-7.254778147E-1,-4.097519517E-1
2.437414271E0,-9.081471562E-1,-7.041724920E-1,-3.852508962E-1
2.439418750E0,-9.134734869E-1,-6.935198903E-1,-3.586193025E-1
2.441423229E0,-9.209303260E-1,-6.839325428E-1,-3.405098319E-1
2.443427708E0,-9.262565970E-1,-6.743451357E-1,-3.138782382E-1
2.445432187E0,-9.347787499E-1,-6.647577882E-1,-2.947034836E-1
2.447436667E0,-9.369092584E-1,-6.594314575E-1,-2.723329663E-1
2.449441146E0,-9.411703348E-1,-6.530398726E-1,-2.499624193E-1
2.451445625E0,-9.496924281E-1,-6.487787962E-1,-2.222655714E-1
2.453450104E0,-9.507576823E-1,-6.498440504E-1,-1.988297701E-1
2.455454583E0,-9.571492672E-1,-6.498440504E-1,-1.764592379E-1
2.457459062E0,-9.560840130E-1,-6.498440504E-1,-1.540887058E-1
2.459463542E0,-9.571492672E-1,-6.541051269E-1,-1.263918579E-1
2.461468021E0,-9.550187588E-1,-6.583662033E-1,-1.008255333E-1
2.463472500E0,-9.560840130E-1,-6.615619659E-1,-7.845499367E-2
2.465476979E0,-9.528881907E-1,-6.636925340E-1,-5.075814202E-2
2.467481458E0,-9.496924281E-1,-6.658230424E-1,-3.051813506E-2
2.469485937E0,-9.454313517E-1,-6.690188050E-1,-8.147601038E-3
2.471490364E0,-9.443660975E-1,-6.743451357E-1,1.635346003E-2
2.473494792E0,-9.464966059E-1,-6.775409579E-1,4.191978648E-2
2.475499219E0,-9.369092584E-1,-6.849977970E-1,6.535558403E-2
2.477503646E0,-9.326481819E-1,-6.839325428E-1,8.666084707E-2
2.479508073E0,-9.283871651E-1,-6.892588139E-1,1.079661250E-1
2.481512500E0,-9.273219109E-1,-6.945851445E-1,1.345977038E-1
2.483516927E0,-9.177345037E-1,-6.988462210E-1,1.590987742E-1
2.485521354E0,-9.145387411E-1,-7.031072378E-1,1.825345755E-1
2.487525781E0,-9.166692495E-1,-7.073683143E-1,2.059703618E-1
2.489530208E0,-9.145387411E-1,-7.116293907E-1,2.283408940E-1
2.491534635E0,-9.145387411E-1,-7.094988227E-1,2.464503795E-1
2.493539062E0,-9.145387411E-1,-7.116293907E-1,2.709514499E-1
2.495543489E0,-9.134734869E-1,-7.201514840E-1,2.922567129E-1
2.497547917E0,-9.177345037E-1,-7.212167382E-1,3.071703911E-1
2.499552344E0,-9.177345037E-1,-7.276083231E-1,3.295409381E-1
2.501556771E0,-9.156039953E-1,-7.329346538E-1,3.529767394E-1
2.503561198E0,-9.198650718E-1,-7.467830777E-1,3.689556718E-1
2.505565625E0,-9.198650718E-1,-7.563704252E-1,3.891956806E-1
2.507570052E0,-9.166692495E-1,-7.659578323E-1,4.073051810E-1
2.509574479E0,-9.156039953E-1,-7.755451798E-1,4.179578125E-1
2.511578906E0,-9.177345037E-1,-7.915241122E-1,4.371325374E-1
2.513583333E0,-9.134734869E-1,-8.053725362E-1,4.499157071E-1
2.515587760E0,-9.134734869E-1,-8.202862740E-1,4.680252075E-1
2.517592187E0,-9.081471562E-1,-8.330693841E-1,4.829388857E-1
2.519596614E0,-9.038860798E-1,-8.511788845E-1,5.021136403E-1
2.521601042E0,-9.006903172E-1,-8.618315458E-1,5.244841576E-1
2.523605469E0,-8.932334781E-1,-8.714188933E-1,5.457894206E-1
2.525609896E0,-8.868418932E-1,-8.884631395E-1,5.702905059E-1
2.527614323E0,-8.825808167E-1,-9.001809955E-1,5.990526080E-1
2.529618750E0,-8.740587234E-1,-9.108336568E-1,6.192926168E-1
2.531623177E0,-8.676671386E-1,-9.268125892E-1,6.416631341E-1
2.533627604E0,-8.591450453E-1,-9.374652505E-1,6.736210585E-1
2.535632031E0,-8.463618755E-1,-9.491831064E-1,6.938610673E-1
2.537636458E0,-8.357092142E-1,-9.577052593E-1,7.183620930E-1
2.539640885E0,-8.229260445E-1,-9.715536833E-1,7.492547631E-1
2.541645312E0,-8.101428747E-1,-9.822062850E-1,7.780168653E-1
2.543649739E0,-8.026860356E-1,-9.885978699E-1,8.046484590E-1
2.545654167E0,-7.856418490E-1,-1.001381040E0,8.312800527E-1
2.547658594E0,-7.717934251E-1,-1.009903073E0,8.611074090E-1
2.549663021E0,-7.579450011E-1,-1.018425226E0,8.888042569E-1
2.551667448E0,-7.419660091E-1,-1.032273531E0,9.111748338E-1
2.553671875E0,-7.227913141E-1,-1.040795684E0,9.335453510E-1
2.555676302E0,-7.100081444E-1,-1.055709362E0,9.623074532E-1
2.557680729E0,-6.950944662E-1,-1.067427278E0,9.846780300E-1
2.559685156E0,-6.727238894E-1,-1.075949430E0,1.004918098E0
2.561689583E0,-6.535491347E-1,-1.081275702E0,1.024092793E0
2.563694010E0,-6.365049481E-1,-1.092993617E0,1.041136980E0
2.565698437E0,-6.151996851E-1,-1.104711533E0,1.056050777E0
2.567702864E0,-6.013512611E-1,-1.103646278E0,1.075225472E0
2.569707292E0,-5.800459981E-1,-1.114298820E0,1.091204405E0
2.571711719E0,-5.672628284E-1,-1.119625211E0,1.102922320E0
2.573716146E0,-5.480880737E-1,-1.128147244E0,1.113574982E0
2.575720573E0,-5.299785733E-1,-1.135604143E0,1.122097015E0
2.577725000E0,-5.129343867E-1,-1.136669397E0,1.128488660E0
2.579729427E0,-4.958901405E-1,-1.141995668E0,1.135945439E0
2.581733854E0,-4.841722250E-1,-1.153713584E0,1.144467592E0
2.583738281E0,-4.713890851E-1,-1.157974720E0,1.151924491E0
2.585742708E0,-4.618017077E-1,-1.167562008E0,1.151924491E0
2.587747135E0,-4.479532838E-1,-1.170757771E0,1.156185508E0
2.589751562E0,-4.362353683E-1,-1.181410432E0,1.152989745E0
2.591755989E0,-4.255827367E-1,-1.184606194E0,1.158316016E0
2.593760417E0,-4.138648510E-1,-1.195258856E0,1.155120254E0
2.595764844E0,-4.085385203E-1,-1.204846263E0,1.157250762E0
2.597769271E0,-3.989511430E-1,-1.214433670E0,1.157250762E0
2.599773750E0,-3.861679733E-1,-1.221890450E0,1.157250762E0
2.601778229E0,-3.819069266E-1,-1.231477857E0,1.160446525E0
2.603782708E0,-3.723195493E-1,-1.238934636E0,1.163642287E0
2.605787187E0,-3.627322018E-1,-1.247456789E0,1.170033932E0
2.607791667E0,-3.531448245E-1,-1.255978942E0,1.172164440E0
2.609796146E0,-3.467532396E-1,-1.267696857E0,1.174294949E0
2.611800625E0,-3.339700699E-1,-1.267696857E0,1.176425457E0
2.613805104E0,-3.211869001E-1,-1.278349400E0,1.177490711E0
2.615809583E0,-3.094690144E-1,-1.285806298E0,1.184947610E0
2.617814062E0,-2.956205904E-1,-1.290067315E0,1.186012864E0
2.619818542E0,-2.796416283E-1,-1.287936807E0,1.184947610E0
2.621823021E0,-2.657932043E-1,-1.291132569E0,1.189208627E0
2.623827500E0,-2.476837635E-1,-1.299654722E0,1.195600271E0
2.625831979E0,-2.380963862E-1,-1.296458960E0,1.197730780E0
2.627836458E0,-2.178563774E-1,-1.292197824E0,1.195600271E0
2.629840937E0,-1.997469068E-1,-1.292197824E0,1.196665525E0
2.631845417E0,-1.869637370E-1,-1.287936807E0,1.196665525E0
2.633849896E0,-1.656584740E-1,-1.281545281E0,1.193469763E0
2.635854375E0,-1.454184651E-1,-1.274088383E0,1.194535017E0
2.637858854E0,-1.305047721E-1,-1.269827366E0,1.189208627E0
2.639863333E0,-1.102647632E-1,-1.258109450E0,1.187078118E0
2.641867812E0,-9.109002352E-2,-1.247456789E0,1.180686593E0
2.643872292E0,-7.085001469E-2,-1.230412602E0,1.176425457E0
2.645876771E0,-4.954474419E-2,-1.217629433E0,1.170033932E0
2.647881250E0,-3.356578946E-2,-1.201650500E0,1.166838169E0
2.649885729E0,-1.439104415E-2,-1.183540940E0,1.160446525E0
2.651890208E0,3.718435764E-3,-1.166496754E0,1.148728609E0
2.653894687E0,2.395844273E-2,-1.144126177E0,1.140206575E0
2.655899167E0,4.313318431E-2,-1.118559957E0,1.133814931E0
2.657903646E0,6.337319314E-2,-1.098319888E0,1.126358151E0
2.659908125E0,8.361319453E-2,-1.074884057E0,1.105052829E0
2.661912604E0,9.639635682E-2,-1.047187209E0,1.089073896E0
2.663917083E0,1.145058423E-1,-1.031208277E0,1.067768574E0
2.665921562E0,1.315500587E-1,-1.012033582E0,1.051789641E0
2.667926042E0,1.443332136E-1,-9.854021072E-1,1.033680201E0
2.669930521E0,1.571163833E-1,-9.694231153E-1,1.007048607E0
2.671935000E0,1.677690148E-1,-9.459873438E-1,9.825474620E-1
2.673939479E0,1.752258539E-1,-9.278778434E-1,9.633727074E-1
2.675943958E0,1.826827079E-1,-9.087030888E-1,9.324800968E-1
2.677948437E0,1.890742779E-1,-8.905936480E-1,9.122400880E-1
2.679952864E0,1.922700703E-1,-8.756799698E-1,8.888042569E-1
2.681957292E0,1.933353394E-1,-8.554399610E-1,8.674989939E-1
2.683961719E0,1.912048161E-1,-8.383957148E-1,8.387368917E-1
2.685966146E0,1.944006085E-1,-8.224167824E-1,8.184968829E-1
2.687970573E0,1.944006085E-1,-8.032420278E-1,7.993221283E-1
2.689975000E0,1.890742779E-1,-7.936546803E-1,7.780168653E-1
2.691979427E0,1.890742779E-1,-7.766104341E-1,7.556463480E-1
2.693983854E0,1.858785003E-1,-7.574356794E-1,7.375368476E-1
2.695988281E0,1.826827079E-1,-7.446525097E-1,7.194274068E-1
2.697992708E0,1.773563921E-1,-7.297388315E-1,7.066442370E-1
2.699997135E0,1.752258539E-1,-7.148251534E-1,6.885347366E-1
2.702001562E0,1.709648073E-1,-6.967156529E-1,6.789473891E-1
2.704005989E0,1.709648073E-1,-6.807367206E-1,6.725558043E-1
2.706010417E0,1.667037457E-1,-6.700840592E-1,6.661642194E-1
2.708014844E0,1.645732224E-1,-6.562356353E-1,6.619031429E-1
2.710019271E0,1.667037457E-1,-6.370609403E-1,6.587073803E-1
2.712023698E0,1.656384915E-1,-6.285387874E-1,6.555115581E-1
2.714028125E0,1.656384915E-1,-6.200166941E-1,6.587073803E-1
2.716032552E0,1.667037457E-1,-6.051030159E-1,6.576421261E-1
2.718036979E0,1.709648073E-1,-5.923198462E-1,6.650989652E-1
2.720041406E0,1.730953306E-1,-5.806019306E-1,6.682947278E-1
2.722045833E0,1.826827079E-1,-5.678187609E-1,6.768168211E-1
2.724050260E0,1.805521846E-1,-5.507745743E-1,6.789473891E-1
2.726054687E0,1.858785003E-1,-5.390566587E-1,6.906652451E-1
2.728059114E0,1.912048161E-1,-5.230777264E-1,6.949263215E-1
2.730063542E0,1.890742779E-1,-5.039029121E-1,7.055789828E-1
2.732067969E0,1.997269243E-1,-4.879239798E-1,7.087747455E-1
2.734072396E0,2.039879709E-1,-4.676839709E-1,7.109052539E-1
2.736076823E0,2.114448249E-1,-4.538355470E-1,7.151663303E-1
2.738081250E0,2.189016640E-1,-4.314649999E-1,7.151663303E-1
2.740085677E0,2.284890413E-1,-4.101597369E-1,7.172968388E-1
2.742090104E0,2.402069271E-1,-3.867239356E-1,7.141010761E-1
2.744094531E0,2.465985268E-1,-3.718102276E-1,7.109052539E-1
2.746098958E0,2.529901266E-1,-3.483744562E-1,7.109052539E-1
2.748103385E0,2.572511733E-1,-3.323954940E-1,7.023831606E-1
2.750107812E0,2.636427581E-1,-2.961765230E-1,6.917305589E-1
2.752112239E0,2.700343430E-1,-2.770017982E-1,6.885347366E-1
2.754116667E0,2.732301354E-1,-2.556965351E-1,6.800126433E-1
2.756121094E0,2.785564363E-1,-2.248039097E-1,6.704252362E-1
2.758125521E0,2.860133052E-1,-2.077596933E-1,6.608378887E-1
2.760129948E0,2.870785594E-1,-1.832586229E-1,6.533810496E-1
2.762134375E0,2.913396060E-1,-1.587575674E-1,6.512505412E-1
2.764138802E0,2.966659367E-1,-1.353217512E-1,6.384673715E-1
2.766143229E0,3.019922376E-1,-1.161470115E-1,6.320757866E-1
2.768147656E0,3.030575216E-1,-9.484174103E-2,6.192926168E-1
2.770152083E0,3.073185682E-1,-8.312384039E-2,6.160967946E-1
2.772156510E0,3.073185682E-1,-6.288383156E-2,6.075747013E-1
2.774160937E0,3.094491065E-1,-5.223120004E-2,6.011831164E-1
2.776165364E0,3.094491065E-1,-3.625224903E-2,5.969220996E-1
2.778169792E0,3.073185682E-1,-2.453434840E-2,5.926610231E-1
2.780174219E0,3.094491065E-1,-1.601224020E-2,5.873346925E-1
2.782178646E0,3.051880300E-1,-3.229078837E-3,5.873346925E-1
2.784183073E0,3.041227758E-1,1.168461051E-2,5.841389298E-1
2.786187500E0,3.030575216E-1,2.233725041E-2,5.841389298E-1
2.788191927E0,3.009269834E-1,2.233725041E-2,5.862694383E-1
2.790196354E0,2.966659367E-1,3.192462027E-2,5.905305147E-1
2.792200781E0,2.956006825E-1,3.938146681E-2,5.905305147E-1
2.794205208E0,2.934701443E-1,4.364252090E-2,5.947915316E-1
2.796209635E0,2.913396060E-1,4.896883667E-2,5.969220996E-1
2.798214062E0,2.849480212E-1,5.109935999E-2,6.022483706E-1
2.800218489E0,2.838827670E-1,5.642568320E-2,6.075747013E-1
2.802222917E0,2.796217203E-1,6.281726062E-2,6.129010320E-1
2.804227396E0,2.753606737E-1,6.494779140E-2,6.192926168E-1
2.806231875E0,2.742953897E-1,7.027410716E-2,6.214231253E-1
2.808236354E0,2.700343430E-1,7.986147702E-2,6.299452186E-1
2.810240833E0,2.700343430E-1,9.157937765E-2,6.331410408E-1
2.812245312E0,2.679038048E-1,9.370990098E-2,6.384673715E-1
2.814249792E0,2.647080123E-1,1.011667475E-1,6.395326257E-1
2.816254271E0,2.647080123E-1,1.139499098E-1,6.427283883E-1
2.818258750E0,2.647080123E-1,1.224720106E-1,6.459242105E-1
2.820263229E0,2.647080123E-1,1.288635880E-1,6.469894648E-1
2.822267708E0,2.647080123E-1,1.373856962E-1,6.523157954E-1
2.824272187E0,2.593817115E-1,1.491035968E-1,6.576421261E-1
2.826276667E0,2.604469657E-1,1.544299126E-1,6.544463038E-1
2.828281146E0,2.615122497E-1,1.672130674E-1,6.512505412E-1
2.830285625E0,2.593817115E-1,1.799962372E-1,6.512505412E-1
2.832290104E0,2.519248724E-1,1.874530762E-1,6.555115581E-1
2.834294583E0,2.540553808E-1,2.034320384E-1,6.469894648E-1
2.836299062E0,2.465985268E-1,2.140846699E-1,6.459242105E-1
2.838303542E0,2.497943193E-1,2.194109857E-1,6.427283883E-1
2.840308021E0,2.508595884E-1,2.311288714E-1,6.374021173E-1
2.842312500E0,2.487290651E-1,2.407162637E-1,6.320757866E-1
2.844316979E0,2.497943193E-1,2.513689101E-1,6.267494559E-1
2.846321458E0,2.497943193E-1,2.609562874E-1,6.214231253E-1
2.848325937E0,2.508595884E-1,2.662826180E-1,6.160967946E-1
2.850330417E0,2.529901266E-1,2.694784105E-1,6.097052693E-1
2.852334896E0,2.508595884E-1,2.748047113E-1,6.011831164E-1
2.854339375E0,2.529901266E-1,2.737394571E-1,5.937262774E-1
2.856343854E0,2.540553808E-1,2.716089189E-1,5.873346925E-1
2.858348333E0,2.508595884E-1,2.684131265E-1,5.788125992E-1
2.860352812E0,2.508595884E-1,2.673478723E-1,5.724210143E-1
2.862357292E0,2.465985268E-1,2.630868256E-1,5.638989210E-1
2.864361771E0,2.444679886E-1,2.566952407E-1,5.553768277E-1
2.866366250E0,2.508595884E-1,2.513689101E-1,5.457894206E-1
2.868370729E0,2.476637810E-1,2.375204563E-1,5.436589122E-1
2.870375208E0,2.444679886E-1,2.311288714E-1,5.393978357E-1
2.872379687E0,2.455332726E-1,2.204762548E-1,5.362020731E-1
2.874384167E0,2.487290651E-1,2.108888775E-1,5.351368189E-1
2.876388646E0,2.444679886E-1,1.917141378E-1,5.372673273E-1
2.878393125E0,2.434027195E-1,1.768004447E-1,5.362020731E-1
2.880397604E0,2.423374653E-1,1.640172899E-1,5.351368189E-1
2.882402083E0,2.434027195E-1,1.416467428E-1,5.425936580E-1
2.884406510E0,2.412721962E-1,1.256677955E-1,5.447241664E-1
2.886410937E0,2.391416728E-1,1.118193865E-1,5.489852428E-1
2.888415364E0,2.327500880E-1,9.797096252E-2,5.564420819E-1
2.890419792E0,2.295542955E-1,7.879621536E-2,5.617683530E-1
2.892424219E0,2.284890413E-1,6.920884550E-2,5.702905059E-1
2.894428646E0,2.284890413E-1,5.749094486E-2,5.809431076E-1
2.896433073E0,2.252932489E-1,4.896883667E-2,5.883999467E-1
2.898437500E0,2.242279798E-1,3.831619769E-2,5.979873538E-1
2.900441927E0,2.178363949E-1,2.872882783E-2,6.075747013E-1
2.902446354E0,2.167711407E-1,2.340251207E-2,6.139662862E-1
2.904450781E0,2.146406174E-1,2.127198130E-2,6.182273626E-1
2.906455208E0,2.103795558E-1,1.488040108E-2,6.299452186E-1
2.908459635E0,2.125100791E-1,1.061934698E-2,6.374021173E-1
2.910464062E0,2.093142867E-1,9.554083459E-3,6.395326257E-1
2.912468489E0,1.997269243E-1,7.423556410E-3,6.501852274E-1
2.914472917E0,1.997269243E-1,9.554083459E-3,6.512505412E-1
2.916477344E0,1.965311319E-1,1.274987403E-2,6.523157954E-1
2.918481771E0,1.912048161E-1,1.274987403E-2,6.544463038E-1
2.920486198E0,1.880090237E-1,1.274987403E-2,6.544463038E-1
2.922490625E0,1.848132312E-1,1.914145425E-2,6.544463038E-1
2.924495052E0,1.837479621E-1,2.340251207E-2,6.544463038E-1
2.926499479E0,1.816174388E-1,2.553303540E-2,6.501852274E-1
2.928503906E0,1.837479621E-1,2.872882783E-2,6.427283883E-1
2.930508333E0,1.784216464E-1,3.405514359E-2,6.395326257E-1
2.932512760E0,1.784216464E-1,3.405514359E-2,6.363368034E-1
2.934517187E0,1.762911230E-1,3.725093603E-2,6.256842017E-1
2.936521614E0,1.741605997E-1,3.938146681E-2,6.171621084E-1
2.938526042E0,1.752258539E-1,3.938146681E-2,6.086399555E-1
2.940530469E0,1.773563921E-1,3.725093603E-2,6.022483706E-1
2.942535156E0,1.762911230E-1,3.831619769E-2,5.905305147E-1
2.944539844E0,1.816174388E-1,3.192462027E-2,5.862694383E-1
2.946544427E0,1.794869155E-1,2.766356617E-2,5.745515227E-1
2.948548854E0,1.794869155E-1,2.127198130E-2,5.681599379E-1
2.950553281E0,1.816174388E-1,1.488040108E-2,5.617683530E-1
2.952557708E0,1.837479621E-1,7.423556410E-3,5.596378446E-1
2.954562135E0,1.858785003E-1,-3.328826278E-5,5.585725904E-1
2.956566562E0,1.869437546E-1,-1.494697761E-2,5.543115139E-1
2.958570989E0,1.901395470E-1,-2.666487545E-2,5.521810055E-1
2.960575417E0,1.901395470E-1,-3.305645660E-2,5.500504971E-1
2.962579844E0,1.933353394E-1,-4.797014594E-2,5.511157513E-1
2.964584271E0,1.912048161E-1,-6.288383156E-2,5.500504971E-1
2.966588698E0,1.965311319E-1,-7.992804796E-2,5.521810055E-1
2.968593125E0,1.954658628E-1,-9.058068693E-2,5.511157513E-1
2.970597552E0,1.944006085E-1,-1.076249033E-1,5.500504971E-1
2.972601979E0,1.965311319E-1,-1.204080656E-1,5.585725904E-1
2.974606406E0,1.986616552E-1,-1.321259588E-1,5.585725904E-1
2.976610833E0,2.018574476E-1,-1.417133510E-1,5.596378446E-1
2.978615260E0,2.061184943E-1,-1.534312516E-1,5.638989210E-1
2.980619687E0,1.997269243E-1,-1.651491523E-1,5.681599379E-1
2.982624114E0,2.050532401E-1,-1.726059914E-1,5.713557601E-1
2.984628542E0,2.082490325E-1,-1.821933687E-1,5.724210143E-1
2.986632969E0,2.082490325E-1,-1.928460002E-1,5.745515227E-1
2.988637396E0,2.093142867E-1,-2.024333775E-1,5.756168365E-1
2.990641823E0,2.114448249E-1,-2.141512632E-1,5.777473450E-1
2.992646250E0,2.157058716E-1,-2.226733714E-1,5.756168365E-1
2.994650677E0,2.178363949E-1,-2.279996872E-1,5.734862685E-1
2.996655104E0,2.199669331E-1,-2.407828569E-1,5.692252517E-1
2.998659531E0,2.210321873E-1,-2.450439036E-1,5.638989210E-1
3.000663958E0,2.210321873E-1,-2.525007427E-1,5.607030988E-1
3.002668385E0,2.242279798E-1,-2.588923275E-1,5.543115139E-1
3.004672812E0,2.284890413E-1,-2.674144208E-1,5.425936580E-1
3.006677239E0,2.295542955E-1,-2.716754675E-1,5.351368189E-1
3.008681667E0,2.359458804E-1,-2.727407217E-1,5.266146660E-1
3.010686094E0,2.359458804E-1,-2.738060057E-1,5.148968101E-1
3.012690521E0,2.412721962E-1,-2.833933830E-1,5.042441487E-1
3.014694948E0,2.455332726E-1,-2.780670524E-1,4.893304706E-1
3.016699375E0,2.465985268E-1,-2.823280990E-1,4.776125550E-1
3.018703802E0,2.508595884E-1,-2.865891457E-1,4.658946693E-1
3.020708229E0,2.540553808E-1,-2.876544297E-1,4.531114995E-1
3.022712656E0,2.497943193E-1,-2.929807305E-1,4.456546605E-1
3.024717083E0,2.487290651E-1,-2.961765230E-1,4.286104441E-1
3.026721510E0,2.497943193E-1,-2.993723154E-1,4.126314819E-1
3.028725937E0,2.508595884E-1,-2.972418070E-1,3.977178037E-1
3.030730364E0,2.519248724E-1,-2.972418070E-1,3.923914731E-1
3.032734792E0,2.497943193E-1,-2.961765230E-1,3.796083331E-1
3.034739219E0,2.508595884E-1,-2.993723154E-1,3.689556718E-1
3.036743646E0,2.476637810E-1,-2.983070612E-1,3.583030403E-1
3.038748073E0,2.497943193E-1,-2.919154763E-1,3.412588239E-1
3.040752500E0,2.519248724E-1,-2.919154763E-1,3.284756839E-1
3.042756927E0,2.444679886E-1,-2.897849381E-1,3.199535608E-1
3.044761354E0,2.465985268E-1,-2.865891457E-1,3.050398827E-1
3.046765781E0,2.444679886E-1,-2.855238914E-1,2.997135520E-1
3.048770208E0,2.465985268E-1,-2.812628448E-1,2.826693356E-1
3.050774635E0,2.487290651E-1,-2.780670524E-1,2.698861659E-1
3.052779062E0,2.540553808E-1,-2.780670524E-1,2.602988183E-1
3.054783489E0,2.561859190E-1,-2.780670524E-1,2.464503795E-1
3.056787917E0,2.529901266E-1,-2.823280990E-1,2.347324789E-1
3.058792344E0,2.615122497E-1,-2.833933830E-1,2.219493240E-1
3.060796771E0,2.615122497E-1,-2.887196839E-1,2.102314234E-1
3.062801198E0,2.625775039E-1,-2.929807305E-1,1.963829994E-1
3.064805625E0,2.700343430E-1,-2.983070612E-1,1.793387830E-1
3.066810052E0,2.732301354E-1,-3.121554852E-1,1.633598208E-1
3.068814479E0,2.753606737E-1,-3.228081167E-1,1.484461427E-1
3.070818958E0,2.817522287E-1,-3.323954940E-1,1.314019263E-1
3.072823437E0,2.913396060E-1,-3.526355028E-1,1.090313867E-1
3.074827917E0,2.966659367E-1,-3.664839268E-1,8.879137784E-2
3.076832396E0,3.009269834E-1,-3.856586814E-1,6.642084569E-2
3.078836875E0,3.030575216E-1,-3.973765671E-1,4.618084058E-2
3.080841354E0,3.158406615E-1,-4.176165760E-1,1.422293205E-2
3.082845833E0,3.169059455E-1,-4.378565848E-1,-6.017073989E-3
3.084850312E0,3.211669922E-1,-4.602271020E-1,-2.519181743E-2
3.086854792E0,3.286238313E-1,-4.825976491E-1,-4.969287664E-2
3.088859271E0,3.371459544E-1,-5.039029121E-1,-7.206341624E-2
3.090863750E0,3.414070010E-1,-5.220124722E-1,-9.869500250E-2
3.092868229E0,3.435375392E-1,-5.443829894E-1,-1.157392189E-1
3.094872708E0,3.573859632E-1,-5.688840747E-1,-1.391750127E-1
3.096877187E0,3.584512174E-1,-5.912545919E-1,-1.562192291E-1
3.098881667E0,3.669733107E-1,-6.093640924E-1,-1.785897613E-1
3.100886146E0,3.722996414E-1,-6.317346096E-1,-1.966992468E-1
3.102890625E0,3.744301796E-1,-6.530398726E-1,-2.137434632E-1
3.104895104E0,3.829522729E-1,-6.754103899E-1,-2.275918871E-1
3.106899583E0,3.861480653E-1,-6.924546361E-1,-2.435708344E-1
3.108904062E0,3.893438578E-1,-7.094988227E-1,-2.563540041E-1
3.110908542E0,3.914743960E-1,-7.308040857E-1,-2.638108432E-1
3.112913021E0,3.882786036E-1,-7.467830777E-1,-2.723329663E-1
3.114917500E0,3.936049044E-1,-7.659578323E-1,-2.861813903E-1
3.116921979E0,3.946701884E-1,-7.819367647E-1,-2.936382294E-1
3.118926458E0,3.925396502E-1,-7.957851887E-1,-3.000298142E-1
3.120930937E0,3.914743960E-1,-8.064377904E-1,-3.053561151E-1
3.122935417E0,3.882786036E-1,-8.202862740E-1,-3.160087466E-1
3.124939896E0,3.882786036E-1,-8.266777992E-1,-3.245308697E-1
3.126944375E0,3.861480653E-1,-8.383957148E-1,-3.319877088E-1
3.128948854E0,3.818870187E-1,-8.447872996E-1,-3.415750861E-1
3.130953333E0,3.797564805E-1,-8.533093929E-1,-3.522277176E-1
3.132957812E0,3.808217347E-1,-8.501136303E-1,-3.575540483E-1
3.134962292E0,3.712343872E-1,-8.511788845E-1,-3.671414256E-1
3.136966771E0,3.701691031E-1,-8.565052152E-1,-3.724677265E-1
3.138971250E0,3.616470098E-1,-8.575704694E-1,-3.895119429E-1
3.140975729E0,3.637775481E-1,-8.479831219E-1,-3.959035277E-1
3.142980208E0,3.595164716E-1,-8.490483761E-1,-4.097519517E-1
3.144984687E0,3.584512174E-1,-8.469178081E-1,-4.193393290E-1
3.146989167E0,3.595164716E-1,-8.405262232E-1,-4.331877530E-1
3.148993646E0,3.541901708E-1,-8.309388757E-1,-4.481014311E-1
3.150998125E0,3.488638401E-1,-8.266777992E-1,-4.544930160E-1
3.153002552E0,3.520596325E-1,-8.149599433E-1,-4.651456475E-1
3.155006979E0,3.456680477E-1,-8.085683584E-1,-4.811246097E-1
3.157011406E0,3.477985859E-1,-8.043072820E-1,-4.917772412E-1
3.159015833E0,3.477985859E-1,-7.925893664E-1,-5.056256652E-1
3.161020260E0,3.424722552E-1,-7.851325274E-1,-5.109519958E-1
3.163024687E0,3.424722552E-1,-7.787409425E-1,-5.290614963E-1
3.165029114E0,3.424722552E-1,-7.723493576E-1,-5.397140980E-1
3.167033542E0,3.350154161E-1,-7.648925185E-1,-5.514320135E-1
3.169037969E0,3.307543695E-1,-7.595662475E-1,-5.642151833E-1
3.171042396E0,3.275585771E-1,-7.531746626E-1,-5.791288614E-1
3.173046823E0,3.222322464E-1,-7.478483319E-1,-5.929772854E-1
3.175051250E0,3.211669922E-1,-7.478483319E-1,-6.068257093E-1
3.177055677E0,3.126448691E-1,-7.393262386E-1,-6.185436249E-1
3.179060104E0,3.073185682E-1,-7.350651622E-1,-6.313267350E-1
3.181064531E0,3.019922376E-1,-7.318693995E-1,-6.441099048E-1
3.183068958E0,2.977311909E-1,-7.222819924E-1,-6.558278203E-1
3.185073385E0,2.892090976E-1,-7.180209160E-1,-6.611541510E-1
3.187077812E0,2.806869745E-1,-7.158904076E-1,-6.750025749E-1
3.189082239E0,2.710995972E-1,-7.116293907E-1,-6.824594140E-1
3.191086667E0,2.657732964E-1,-7.063030601E-1,-6.931120753E-1
3.193091094E0,2.583164573E-1,-7.052378058E-1,-7.005689144E-1
3.195095521E0,2.465985268E-1,-6.988462210E-1,-7.122867703E-1
3.197099948E0,2.370111495E-1,-6.977809668E-1,-7.240046859E-1
3.199104375E0,2.274237722E-1,-6.935198903E-1,-7.357226014E-1
3.201108802E0,2.178363949E-1,-6.807367206E-1,-7.474405169E-1
3.203113229E0,2.007921785E-1,-6.754103899E-1,-7.591583729E-1
3.205117656E0,1.922700703E-1,-6.700840592E-1,-7.719415426E-1
3.207122083E0,1.752258539E-1,-6.615619659E-1,-7.836594582E-1
3.209126510E0,1.635079682E-1,-6.487787962E-1,-7.921815515E-1
3.211130133E0,1.475290060E-1,-6.402567029E-1,-8.060299754E-1
3.213134560E0,1.326153129E-1,-6.232125163E-1,-8.198783994E-1
3.215138988E0,1.155711040E-1,-6.104293466E-1,-8.284004927E-1
3.217143415E0,9.746162593E-2,-5.944503546E-1,-8.401184082E-1
3.219147842E0,8.467845619E-2,-5.795366764E-1,-8.571626544E-1
3.221152269E0,6.763423979E-2,-5.678187609E-1,-8.720763326E-1
3.223156696E0,5.591634661E-2,-5.518398285E-1,-8.891205192E-1
3.225161123E0,3.461107612E-2,-5.315998197E-1,-8.997731805E-1
3.227165550E0,2.182791568E-2,-5.188166499E-1,-9.210784435E-1
3.229169977E0,3.718435764E-3,-5.081639886E-1,-9.381226897E-1
3.231171019E0,-1.652157120E-2,-4.911197424E-1,-9.583626390E-1
3.233172060E0,-3.569631651E-2,-4.804671109E-1,-9.743416309E-1
3.235173519E0,-5.806685239E-2,-4.644881785E-1,-9.903205633E-1
3.237175498E0,-8.576370776E-2,-4.517050087E-1,-1.011625767E0
3.239178050E0,-1.091995016E-1,-4.431828856E-1,-1.026539445E0
3.241181227E0,-1.347658336E-1,-4.325302541E-1,-1.053171039E0
3.243185081E0,-1.582016200E-1,-4.240081608E-1,-1.071280599E0
3.245189613E0,-1.858984828E-1,-4.154860377E-1,-1.092585802E0
3.247194769E0,-2.082690150E-1,-4.101597369E-1,-1.117086887E0
3.249200498E0,-2.380963862E-1,-3.973765671E-1,-1.137326837E0
3.251206748E0,-2.647279501E-1,-3.899197280E-1,-1.161827922E0
3.253213415E0,-2.913595438E-1,-3.760713041E-1,-1.186329007E0
3.255220394E0,-3.169258535E-1,-3.718102276E-1,-1.207634330E0
3.257227581E0,-3.478184938E-1,-3.643533885E-1,-1.228939533E0
3.259234873E0,-3.701890409E-1,-3.579618037E-1,-1.248114228E0
3.261241956E0,-3.936248422E-1,-3.409175873E-1,-1.275811195E0
3.263246383E0,-4.202564061E-1,-3.366565406E-1,-1.293920636E0
3.265250810E0,-4.447574914E-1,-3.185470700E-1,-1.315225840E0
3.267255238E0,-4.681932926E-1,-3.121554852E-1,-1.333335400E0
3.269259665E0,-4.884332716E-1,-3.004375696E-1,-1.358901739E0
3.271264092E0,-5.044122934E-1,-2.855238914E-1,-1.378076434E0
3.273268519E0,-5.246523023E-1,-2.684796751E-1,-1.403642774E0
3.275272946E0,-5.470228195E-1,-2.503702343E-1,-1.417491198E0
3.277277373E0,-5.630017519E-1,-2.333260179E-1,-1.438796401E0
3.279281800E0,-5.736544132E-1,-2.077596933E-1,-1.452644825E0
3.281286227E0,-5.853722692E-1,-1.832586229E-1,-1.471819639E0
3.283290654E0,-5.981554389E-1,-1.555617750E-1,-1.488863826E0
3.285295081E0,-6.056122780E-1,-1.246691197E-1,-1.505908012E0
3.287299508E0,-6.151996851E-1,-9.590700269E-2,-1.515495420E0
3.289303935E0,-6.183954477E-1,-6.714488566E-2,-1.530409098E0
3.291308363E0,-6.279828548E-1,-3.838277608E-2,-1.542127013E0
3.293312790E0,-6.301133633E-1,-1.068592351E-2,-1.561301708E0
3.295317217E0,-6.343744397E-1,1.914145425E-2,-1.573019624E0
3.297321644E0,-6.375702024E-1,4.896883667E-2,-1.581541777E0
3.299326071E0,-6.397007108E-1,7.773095369E-2,-1.592194438E0
3.301330498E0,-6.418312788E-1,1.118193865E-1,-1.600716472E0
3.303334925E0,-6.450270414E-1,1.459078044E-1,-1.608173370E0
3.305339352E0,-6.460922956E-1,1.789309680E-1,-1.618826032E0
3.307343779E0,-6.492881179E-1,2.023667693E-1,-1.625217557E0
3.309348206E0,-6.503533721E-1,2.321941555E-1,-1.633739710E0
3.311352633E0,-6.503533721E-1,2.588257790E-1,-1.632674456E0
3.313357060E0,-6.535491347E-1,2.865226269E-1,-1.634804964E0
3.315361488E0,-6.599407196E-1,3.035668433E-1,-1.638000727E0
3.317365915E0,-6.588754654E-1,3.312636912E-1,-1.643326998E0
3.319370342E0,-6.652670503E-1,3.536342084E-1,-1.644392371E0
3.321374769E0,-6.727238894E-1,3.823963404E-1,-1.645457625E0
3.323379196E0,-6.780502200E-1,4.015710652E-1,-1.642261744E0
3.325383623E0,-6.876375675E-1,4.175500274E-1,-1.638000727E0
3.327388050E0,-6.887028813E-1,4.377900362E-1,-1.641196489E0
3.329392477E0,-6.929638982E-1,4.516384602E-1,-1.629478574E0
3.331396904E0,-6.972249746E-1,4.612258375E-1,-1.629478574E0
3.333401331E0,-7.046818137E-1,4.772047997E-1,-1.622021794E0
3.335405758E0,-7.078775764E-1,4.931837022E-1,-1.627348065E0
3.337410185E0,-7.121386528E-1,5.091626644E-1,-1.617760777E0
3.339414613E0,-7.227913141E-1,5.112931728E-1,-1.613499641E0
3.341419040E0,-7.281175852E-1,5.283373594E-1,-1.607108116E0
3.343423467E0,-7.355744839E-1,5.347289443E-1,-1.607108116E0
3.345427894E0,-7.409007549E-1,5.443163514E-1,-1.603912354E0
3.347432321E0,-7.472923398E-1,5.517731905E-1,-1.598585963E0
3.349436748E0,-7.536839247E-1,5.645563602E-1,-1.597520709E0
3.351441175E0,-7.579450011E-1,5.677521229E-1,-1.594324946E0
3.353445602E0,-7.632713318E-1,5.847963691E-1,-1.602847099E0
3.355450029E0,-7.717934251E-1,5.901226401E-1,-1.595390201E0
3.357454456E0,-7.760544419E-1,6.007753015E-1,-1.606042862E0
3.359458883E0,-7.845765948E-1,6.103626490E-1,-1.614564896E0
3.361463310E0,-7.877723575E-1,6.188848019E-1,-1.613499641E0
3.363467738E0,-7.984250188E-1,6.252763867E-1,-1.630543947E0
3.365472165E0,-8.048166037E-1,6.327332258E-1,-1.641196489E0
3.367476592E0,-8.090776205E-1,6.359289885E-1,-1.651849151E0
3.369481019E0,-8.133386970E-1,6.487121582E-1,-1.668893337E0
3.371485446E0,-8.197302818E-1,6.497774124E-1,-1.682741761E0
3.373489873E0,-8.271871209E-1,6.508426666E-1,-1.698720813E0
3.375494300E0,-8.335787058E-1,6.540384889E-1,-1.720026016E0
3.377498727E0,-8.314481974E-1,6.572342515E-1,-1.738135457E0
3.379503154E0,-8.357092142E-1,6.593648195E-1,-1.757310271E0
3.381507633E0,-8.357092142E-1,6.561689973E-1,-1.777550220E0
3.383512113E0,-8.346439600E-1,6.593648195E-1,-1.797790289E0
3.385516592E0,-8.325134516E-1,6.614953279E-1,-1.813769221E0
3.387521071E0,-8.293176293E-1,6.604300737E-1,-1.834009171E0
3.389525550E0,-8.250566125E-1,6.625605822E-1,-1.851053476E0
3.391530029E0,-8.197302818E-1,6.625605822E-1,-1.871293426E0
3.393534508E0,-8.133386970E-1,6.710826755E-1,-1.887272358E0
3.395538988E0,-8.016207814E-1,6.700174212E-1,-1.906447172E0
3.397543467E0,-7.941639423E-1,6.732132435E-1,-1.914969206E0
3.399547946E0,-7.888376117E-1,6.710826755E-1,-1.930948257E0
3.401552425E0,-7.739239335E-1,6.753437519E-1,-1.940535545E0
3.403556904E0,-7.622060180E-1,6.796047688E-1,-1.955449224E0
3.405561383E0,-7.483575940E-1,6.859963536E-1,-1.962906122E0
3.407565863E0,-7.409007549E-1,6.849310994E-1,-1.974624038E0
3.409570342E0,-7.281175852E-1,6.934532523E-1,-1.984211326E0
3.411574821E0,-7.121386528E-1,6.955837607E-1,-1.986341953E0
3.413579300E0,-7.025513053E-1,6.998447776E-1,-1.988472462E0
3.415583779E0,-6.812460423E-1,7.062363625E-1,-1.993798733E0
3.417588258E0,-6.684628725E-1,7.115626931E-1,-1.992733479E0
3.419592738E0,-6.514186263E-1,7.115626931E-1,-1.994863987E0
3.421597217E0,-6.333091259E-1,7.190195322E-1,-1.989537716E0
3.423601696E0,-6.205260158E-1,7.232806087E-1,-1.986341953E0
3.425606175E0,-6.034817696E-1,7.264763713E-1,-1.985276699E0
3.427610654E0,-5.885680914E-1,7.286069393E-1,-1.981015563E0
3.429615133E0,-5.704585910E-1,7.307374477E-1,-1.975689292E0
3.431619613E0,-5.555449128E-1,7.371290326E-1,-1.974624038E0
3.433624092E0,-5.385007262E-1,7.403247952E-1,-1.962906122E0
3.435628571E0,-5.193259716E-1,7.413901091E-1,-1.959710360E0
3.437633050E0,-5.012164712E-1,7.445858717E-1,-1.956514478E0
3.439637529E0,-4.873680174E-1,7.435206175E-1,-1.951188207E0
3.441642008E0,-4.681932926E-1,7.477816343E-1,-1.944796681E0
3.443646488E0,-4.490185380E-1,7.467163801E-1,-1.935209274E0
3.445650967E0,-4.351701140E-1,7.499122024E-1,-1.927752376E0
3.447655446E0,-4.149301052E-1,7.531079650E-1,-1.919230342E0
3.449659925E0,-3.968206346E-1,7.552385330E-1,-1.910708189E0
3.451664404E0,-3.829722106E-1,7.594995499E-1,-1.902186036E0
3.453668883E0,-3.648627102E-1,7.658911347E-1,-1.894729257E0
3.455673363E0,-3.488837779E-1,7.701522112E-1,-1.887272358E0
3.457677842E0,-3.307742774E-1,7.744132280E-1,-1.876619816E0
3.459682321E0,-3.158605993E-1,7.808048129E-1,-1.871293426E0
3.461686800E0,-3.020121753E-1,7.861311436E-1,-1.861706018E0
3.463691279E0,-2.934900522E-1,7.861311436E-1,-1.856379747E0
3.465695706E0,-2.764458358E-1,7.861311436E-1,-1.845727086E0
3.467700133E0,-2.668584883E-1,7.935879827E-1,-1.840400815E0
3.469704560E0,-2.583363652E-1,7.967838049E-1,-1.827617645E0
3.471708988E0,-2.487490177E-1,7.989143133E-1,-1.820160747E0
3.473713415E0,-2.412921786E-1,8.031753898E-1,-1.810573459E0
3.475717842E0,-2.359658629E-1,8.116974831E-1,-1.792463899E0
3.477722269E0,-2.295742780E-1,8.180890679E-1,-1.782876611E0
3.479726696E0,-2.242479622E-1,8.180890679E-1,-1.769028187E0
3.481731123E0,-2.210521698E-1,8.191543221E-1,-1.749853373E0
3.483735550E0,-2.167911232E-1,8.223500848E-1,-1.732809186E0
3.485739977E0,-2.135953307E-1,8.180890679E-1,-1.709373355E0
3.487744404E0,-2.135953307E-1,8.180890679E-1,-1.691263914E0
3.489748831E0,-2.114647925E-1,8.234153986E-1,-1.672089219E0
3.491753258E0,-2.082690150E-1,8.191543221E-1,-1.647588134E0
3.493757685E0,-2.050732225E-1,8.212848306E-1,-1.625217557E0
3.495762113E0,-2.018774301E-1,8.202195764E-1,-1.599651217E0
3.497766540E0,-2.008121610E-1,8.138279915E-1,-1.574084878E0
3.499770967E0,-1.976163685E-1,8.085016608E-1,-1.544257522E0
3.501775394E0,-1.954858452E-1,8.021100760E-1,-1.516560674E0
3.503779821E0,-1.912247986E-1,7.989143133E-1,-1.494190216E0
3.505784248E0,-1.837679446E-1,7.935879827E-1,-1.469689131E0
3.507788675E0,-1.837679446E-1,7.957185507E-1,-1.439861774E0
3.509793102E0,-1.763111055E-1,7.914574742E-1,-1.412164927E0
3.511797529E0,-1.731153131E-1,7.829353809E-1,-1.388729095E0
3.513801956E0,-1.667237282E-1,7.808048129E-1,-1.366358519E0
3.515806383E0,-1.603321433E-1,7.786743045E-1,-1.340792179E0
3.517810810E0,-1.592668891E-1,7.733479738E-1,-1.313095331E0
3.519815238E0,-1.539405733E-1,7.797395587E-1,-1.290724874E0
3.521819665E0,-1.518100500E-1,7.829353809E-1,-1.263028026E0
3.523824092E0,-1.507447809E-1,7.829353809E-1,-1.243853211E0
3.525828519E0,-1.432879269E-1,7.871963978E-1,-1.218286872E0
3.527832946E0,-1.422226727E-1,7.914574742E-1,-1.192720532E0
3.529837373E0,-1.368963569E-1,7.935879827E-1,-1.167154312E0
3.531841800E0,-1.358310878E-1,7.935879827E-1,-1.145848989E0
3.533846227E0,-1.315700412E-1,7.967838049E-1,-1.125608921E0
3.535850654E0,-1.251784563E-1,7.999795675E-1,-1.108564734E0
3.537855081E0,-1.198521405E-1,8.042406440E-1,-1.091520548E0
3.539859508E0,-1.166563481E-1,8.053058982E-1,-1.069149971E0
3.541863935E0,-1.091995016E-1,8.085016608E-1,-1.060627937E0
3.543868363E0,-1.060037091E-1,8.127627373E-1,-1.045714259E0
3.545872790E0,-9.641633928E-2,8.191543221E-1,-1.040387869E0
3.547877217E0,-8.789423108E-2,8.223500848E-1,-1.024408937E0
3.549881644E0,-7.830686122E-2,8.287416697E-1,-1.018017411E0
3.551886071E0,-7.404580712E-2,8.319374919E-1,-1.006299496E0
3.553890498E0,-5.913211405E-2,8.436554074E-1,-1.004168987E0
3.555894925E0,-5.167526752E-2,8.511122465E-1,-9.935163856E-1
3.557899352E0,-3.889210522E-2,8.596343398E-1,-9.871248007E-1
3.559903779E0,-3.143525869E-2,8.724175096E-1,-9.849942327E-1
3.561908206E0,-1.652157120E-2,8.830701113E-1,-9.775373936E-1
3.563912633E0,-4.803672433E-3,8.926575184E-1,-9.679500461E-1
3.565917060E0,9.044753388E-3,9.065059423E-1,-9.615584612E-1
3.567921488E0,1.969738863E-2,9.214196205E-1,-9.583626390E-1
3.569925915E0,3.354581445E-2,9.373985529E-1,-9.498405457E-1
3.571930342E0,4.206792265E-2,9.523122311E-1,-9.445142150E-1
3.573934769E0,6.017740071E-2,9.693564773E-1,-9.455795288E-1
3.575939196E0,6.976477057E-2,9.864007235E-1,-9.381226897E-1
3.577943623E0,8.361319453E-2,1.003445029E0,-9.317311049E-1
3.579948050E0,9.852688760E-2,1.025815606E0,-9.349268675E-1
3.581952477E0,1.059837341E-1,1.052447200E0,-9.274700284E-1
3.583956956E0,1.198321581E-1,1.067360878E0,-9.221436977E-1
3.585961435E0,1.283542663E-1,1.089731336E0,-9.232089520E-1
3.587965915E0,1.390068978E-1,1.115297675E0,-9.264047742E-1
3.589970394E0,1.496595293E-1,1.139798760E0,-9.136216044E-1
3.591974873E0,1.613774300E-1,1.157908201E0,-9.072300196E-1
3.593979352E0,1.677690148E-1,1.182409286E0,-9.019036889E-1
3.595983831E0,1.794869155E-1,1.207975626E0,-8.987079263E-1
3.597988310E0,1.880090237E-1,1.227150321E0,-8.955121040E-1
3.599992790E0,1.975964010E-1,1.247390389E0,-8.901857734E-1
3.601997269E0,2.039879709E-1,1.265499830E0,-8.837942481E-1
3.604001748E0,2.167711407E-1,1.282544017E0,-8.784679174E-1
3.606006227E0,2.199669331E-1,1.299588323E0,-8.710110784E-1
3.608010706E0,2.242279798E-1,1.311306238E0,-8.667500019E-1
3.610015185E0,2.295542955E-1,1.330480933E0,-8.560973406E-1
3.612019665E0,2.338153571E-1,1.344329357E0,-8.497058153E-1
3.614024144E0,2.370111495E-1,1.359243035E0,-8.347920775E-1
3.616028623E0,2.370111495E-1,1.370960951E0,-8.315963149E-1
3.618033102E0,2.412721962E-1,1.384809375E0,-8.177478909E-1
3.620037581E0,2.465985268E-1,1.394396782E0,-8.092257977E-1
3.622042060E0,2.465985268E-1,1.402918816E0,-7.975078821E-1
3.624046540E0,2.497943193E-1,1.412506223E0,-7.921815515E-1
3.626051019E0,2.540553808E-1,1.416767240E0,-7.847247124E-1
3.628055498E0,2.572511733E-1,1.423158884E0,-7.751373649E-1
3.630059977E0,2.593817115E-1,1.425289392E0,-7.698110342E-1
3.632064456E0,2.625775039E-1,1.421028376E0,-7.623541951E-1
3.634068935E0,2.636427581E-1,1.421028376E0,-7.591583729E-1
3.636073415E0,2.679038048E-1,1.416767240E0,-7.495710254E-1
3.638077894E0,2.710995972E-1,1.409310460E0,-7.485057712E-1
3.640082373E0,2.689690888E-1,1.398657799E0,-7.378531098E-1
3.642086852E0,2.721648812E-1,1.385874629E0,-7.410489321E-1
3.644091331E0,2.753606737E-1,1.382678866E0,-7.346573472E-1
3.646095810E0,2.796217203E-1,1.367765188E0,-7.325267792E-1
3.648100290E0,2.849480212E-1,1.356047273E0,-7.218741775E-1
3.650104769E0,2.902743518E-1,1.348590374E0,-7.186783552E-1
3.652109248E0,3.009269834E-1,1.336872458E0,-7.112215161E-1
3.654113727E0,3.062533140E-1,1.321958780E0,-7.058951855E-1
3.656118206E0,3.094491065E-1,1.307045102E0,-6.973730922E-1
3.658122685E0,3.169059455E-1,1.296392441E0,-6.941773295E-1
3.660127165E0,3.254280388E-1,1.280413508E0,-6.931120753E-1
3.662131644E0,3.339501619E-1,1.258043051E0,-6.824594140E-1
3.664136123E0,3.456680477E-1,1.247390389E0,-6.760678291E-1
3.666140602E0,3.477985859E-1,1.233541965E0,-6.686109900E-1
3.668145029E0,3.595164716E-1,1.217563033E0,-6.611541510E-1
3.670149456E0,3.669733107E-1,1.206910372E0,-6.536973119E-1
3.672153883E0,3.722996414E-1,1.189866185E0,-6.441099048E-1
3.674158310E0,3.797564805E-1,1.176017761E0,-6.398488879E-1
3.676162738E0,3.914743960E-1,1.163234591E0,-6.281309724E-1
3.678167165E0,3.936049044E-1,1.149386168E0,-6.164130569E-1
3.680171592E0,3.999964893E-1,1.133407235E0,-6.078909636E-1
3.682176019E0,3.999964893E-1,1.119558811E0,-6.014993787E-1
3.684180446E0,4.074533284E-1,1.108906150E0,-5.951077938E-1
3.686184873E0,4.106491208E-1,1.093992472E0,-5.823246241E-1
3.688189300E0,4.127796590E-1,1.081209302E0,-5.759330392E-1
3.690193727E0,4.181059599E-1,1.068426132E0,-5.631498694E-1
3.692198154E0,4.202364981E-1,1.058838725E0,-5.620846152E-1
3.694202581E0,4.191712439E-1,1.042859793E0,-5.514320135E-1
3.696207008E0,4.191712439E-1,1.033272386E0,-5.439751744E-1
3.698211435E0,4.255628288E-1,1.023684978E0,-5.365183353E-1
3.700215863E0,4.287586212E-1,1.010901928E0,-5.343877673E-1
3.702220290E0,4.266280830E-1,1.002379775E0,-5.258656740E-1
3.704224717E0,4.340849221E-1,9.906617999E-1,-5.226699114E-1
3.706229144E0,4.394112527E-1,9.810743332E-1,-5.194740891E-1
3.708233571E0,4.372807145E-1,9.682912230E-1,-5.184088349E-1
3.710237998E0,4.383459687E-1,9.565733075E-1,-5.120172501E-1
3.712242425E0,4.340849221E-1,9.416596293E-1,-5.109519958E-1
3.714246852E0,4.372807145E-1,9.256806970E-1,-5.109519958E-1
3.716251279E0,4.436722994E-1,9.097017050E-1,-5.173435807E-1
3.718255706E0,4.479333460E-1,8.915922642E-1,-5.162783265E-1
3.720260133E0,4.489986002E-1,8.724175096E-1,-5.173435807E-1
3.722264560E0,4.521943927E-1,8.489816785E-1,-5.216045976E-1
3.724268988E0,4.521943927E-1,8.319374919E-1,-5.269309282E-1
3.726273415E0,4.553901851E-1,8.159584999E-1,-5.248004198E-1
3.728277842E0,4.575207233E-1,7.957185507E-1,-5.248004198E-1
3.730282269E0,4.596512616E-1,7.818701267E-1,-5.333225131E-1
3.732286696E0,4.596512616E-1,7.605648041E-1,-5.311920047E-1
3.734291123E0,4.649775624E-1,7.477816343E-1,-5.407793522E-1
3.736295550E0,4.649775624E-1,7.318027020E-1,-5.397140980E-1
3.738299977E0,4.692386091E-1,7.073016763E-1,-5.461056828E-1
3.740304404E0,4.713691473E-1,6.923879385E-1,-5.556930304E-1
3.742308831E0,4.713691473E-1,6.742784977E-1,-5.503667593E-1
3.744313258E0,4.734996855E-1,6.614953279E-1,-5.588888526E-1
3.746317685E0,4.756301939E-1,6.423205733E-1,-5.588888526E-1
3.748322113E0,4.798912704E-1,6.284721494E-1,-5.663456917E-1
3.750326540E0,4.798912704E-1,6.167542338E-1,-5.684762001E-1
3.752330967E0,4.766954780E-1,6.114279032E-1,-5.769983530E-1
3.754335394E0,4.756301939E-1,5.922532082E-1,-5.780636072E-1
3.756339821E0,4.734996855E-1,5.869268775E-1,-5.801941156E-1
3.758344248E0,4.713691473E-1,5.741437078E-1,-5.844551921E-1
3.760348675E0,4.724344015E-1,5.613605380E-1,-5.876509547E-1
3.762353102E0,4.734996855E-1,5.581647754E-1,-5.887162089E-1
3.764357529E0,4.692386091E-1,5.496426225E-1,-5.940425396E-1
3.766361956E0,4.692386091E-1,5.432510376E-1,-5.972383618E-1
3.768366383E0,4.639123082E-1,5.347289443E-1,-6.004341245E-1
3.770370810E0,4.649775624E-1,5.325984359E-1,-6.036298871E-1
3.772375238E0,4.617817700E-1,5.240763426E-1,-6.046952009E-1
3.774379665E0,4.639123082E-1,5.272721052E-1,-6.046952009E-1
3.776384092E0,4.585859776E-1,5.304679275E-1,-6.100214720E-1
3.778388519E0,4.553901851E-1,5.230110884E-1,-6.100214720E-1
3.780392946E0,4.511291385E-1,5.294026136E-1,-6.121520400E-1
3.782397373E0,4.489986002E-1,5.294026136E-1,-6.185436249E-1
3.784401852E0,4.479333460E-1,5.304679275E-1,-6.132172942E-1
3.786406331E0,4.468680918E-1,5.347289443E-1,-6.196088791E-1
3.788410810E0,4.500638843E-1,5.368595123E-1,-6.185436249E-1
3.790415290E0,4.489986002E-1,5.411205292E-1,-6.217393875E-1
3.792419769E0,4.468680918E-1,5.475121140E-1,-6.185436249E-1
3.794424248E0,4.511291385E-1,5.496426225E-1,-6.206741333E-1
3.796428727E0,4.521943927E-1,5.581647754E-1,-6.185436249E-1
3.798433206E0,4.521943927E-1,5.602952838E-1,-6.196088791E-1
3.800437685E0,4.596512616E-1,5.624257922E-1,-6.142825484E-1
3.802442165E0,4.639123082E-1,5.613605380E-1,-6.121520400E-1
3.804446644E0,4.649775624E-1,5.666868687E-1,-6.100214720E-1
3.806451123E0,4.692386091E-1,5.634910464E-1,-6.078909636E-1
3.808455602E0,4.766954780E-1,5.688173771E-1,-6.057604551E-1
3.810460081E0,4.809565246E-1,5.624257922E-1,-6.014993787E-1
3.812464560E0,4.884133637E-1,5.602952838E-1,-5.983036160E-1
3.814469040E0,4.958701730E-1,5.570995212E-1,-5.951077938E-1
3.816473519E0,5.033270121E-1,5.592300296E-1,-5.908467770E-1
3.818477998E0,5.075880885E-1,5.549689531E-1,-5.823246241E-1
3.820482477E0,5.171754360E-1,5.539036989E-1,-5.759330392E-1
3.822486956E0,5.225017667E-1,5.475121140E-1,-5.727372766E-1
3.824491435E0,5.310238600E-1,5.432510376E-1,-5.620846152E-1
3.826495915E0,5.352849364E-1,5.389900208E-1,-5.556930304E-1
3.828500394E0,5.427417755E-1,5.357941985E-1,-5.535625219E-1
3.830504873E0,5.470028520E-1,5.251415968E-1,-5.386488438E-1
3.832509352E0,5.491333604E-1,5.230110884E-1,-5.279961824E-1
3.834513831E0,5.523291230E-1,5.112931728E-1,-5.226699114E-1
3.836518310E0,5.533944368E-1,5.038363338E-1,-5.056256652E-1
3.838522790E0,5.640470386E-1,4.995752871E-1,-5.002993941E-1
3.840527269E0,5.597859621E-1,4.867921472E-1,-4.907119870E-1
3.842531748E0,5.629817843E-1,4.782700539E-1,-4.779288173E-1
3.844536227E0,5.597859621E-1,4.697479308E-1,-4.651456475E-1
3.846540706E0,5.587207079E-1,4.537689984E-1,-4.534277618E-1
3.848545185E0,5.608512759E-1,4.463121593E-1,-4.449056387E-1
3.850549665E0,5.544596910E-1,4.260721505E-1,-4.395793378E-1
3.852554144E0,5.470028520E-1,4.175500274E-1,-4.257309139E-1
3.854558623E0,5.459375381E-1,4.047668576E-1,-4.182740450E-1
3.856563102E0,5.406112671E-1,3.941142261E-1,-4.076214135E-1
3.858567581E0,5.374154449E-1,3.813310862E-1,-4.001645744E-1
3.860572060E0,5.320891142E-1,3.738742173E-1,-3.927077353E-1
3.862576540E0,5.235670209E-1,3.632215858E-1,-3.852508962E-1
3.864581019E0,5.203712583E-1,3.525689542E-1,-3.777940571E-1
3.866585498E0,5.129144192E-1,3.387205303E-1,-3.735329807E-1
3.868589977E0,5.011965036E-1,3.280678988E-1,-3.735329807E-1
3.870594404E0,4.948049486E-1,3.163499832E-1,-3.692719340E-1
3.872598831E0,4.905439019E-1,3.067626357E-1,-3.650108874E-1
3.874603258E0,4.830870330E-1,2.950447202E-1,-3.628803492E-1
3.876607685E0,4.745649397E-1,2.854573429E-1,-3.618150949E-1
3.878612113E0,4.639123082E-1,2.780005038E-1,-3.596845567E-1
3.880616540E0,4.596512616E-1,2.726742029E-1,-3.618150949E-1
3.882620967E0,4.521943927E-1,2.652173340E-1,-3.639456332E-1
3.884625394E0,4.415417612E-1,2.630868256E-1,-3.639456332E-1
3.886629821E0,4.383459687E-1,2.545647025E-1,-3.596845567E-1
3.888634248E0,4.266280830E-1,2.566952407E-1,-3.671414256E-1
3.890638675E0,4.159754515E-1,2.556299865E-1,-3.735329807E-1
3.892643102E0,4.106491208E-1,2.492383868E-1,-3.756635189E-1
3.894647529E0,4.031922817E-1,2.471078485E-1,-3.767287731E-1
3.896651956E0,3.989312351E-1,2.503036559E-1,-3.831203580E-1
3.898656383E0,3.936049044E-1,2.460425943E-1,-3.788593113E-1
3.900660810E0,3.861480653E-1,2.524341941E-1,-3.820551038E-1
3.902665238E0,3.829522729E-1,2.534994483E-1,-3.863161504E-1
3.904669665E0,3.701691031E-1,2.524341941E-1,-3.884466887E-1
3.906674092E0,3.659080565E-1,2.556299865E-1,-3.948382735E-1
3.908678519E0,3.595164716E-1,2.620215416E-1,-3.959035277E-1
3.910682946E0,3.520596325E-1,2.673478723E-1,-3.980340660E-1
3.912687373E0,3.446027935E-1,2.705436647E-1,-4.044256210E-1
3.914691800E0,3.382112086E-1,2.748047113E-1,-4.065561593E-1
3.916696227E0,3.318196237E-1,2.822615504E-1,-4.161435366E-1
3.918700654E0,3.296891153E-1,2.865226269E-1,-4.076214135E-1
3.920705081E0,3.264933228E-1,2.950447202E-1,-4.172087908E-1
3.922709508E0,3.169059455E-1,3.025015593E-1,-4.172087908E-1
3.924713935E0,3.137101531E-1,3.163499832E-1,-4.172087908E-1
3.926718363E0,3.126448691E-1,3.312636912E-1,-4.182740450E-1
3.928722790E0,3.073185682E-1,3.344594836E-1,-4.214698374E-1
3.930727217E0,3.030575216E-1,3.344594836E-1,-4.193393290E-1
3.932731644E0,2.987964451E-1,3.387205303E-1,-4.267961681E-1
3.934736071E0,2.956006825E-1,3.451121151E-1,-4.267961681E-1
3.936740498E0,2.934701443E-1,3.546994925E-1,-4.289267063E-1
3.938744925E0,2.934701443E-1,3.557647467E-1,-4.236003757E-1
3.940749352E0,2.892090976E-1,3.515037000E-1,-4.278614223E-1
3.942753779E0,2.881438136E-1,3.568300009E-1,-4.310572147E-1
3.944758206E0,2.870785594E-1,3.525689542E-1,-4.310572147E-1
3.946762633E0,2.838827670E-1,3.493731618E-1,-4.353182912E-1
3.948767060E0,2.849480212E-1,3.493731618E-1,-4.363835454E-1
3.950771488E0,2.838827670E-1,3.461773694E-1,-4.395793378E-1
3.952775915E0,2.860133052E-1,3.515037000E-1,-4.374487996E-1
3.954780342E0,2.838827670E-1,3.578952849E-1,-4.321224988E-1
3.956784769E0,2.870785594E-1,3.632215858E-1,-4.363835454E-1
3.958789196E0,2.870785594E-1,3.642868400E-1,-4.363835454E-1
3.960793623E0,2.881438136E-1,3.536342084E-1,-4.385140538E-1
3.962798050E0,2.881438136E-1,3.568300009E-1,-4.385140538E-1
3.964802477E0,2.902743518E-1,3.589605391E-1,-4.363835454E-1
3.966806904E0,2.892090976E-1,3.546994925E-1,-4.310572147E-1
3.968811331E0,2.870785594E-1,3.451121151E-1,-4.363835454E-1
3.970815758E0,2.870785594E-1,3.291331530E-1,-4.331877530E-1
3.972820185E0,2.881438136E-1,3.312636912E-1,-4.310572147E-1
