"Time (s)","Gyroscope x (rad/s)","Gyroscope y (rad/s)","Gyroscope z (rad/s)"
2.003755200E-2,-3.738408908E-3,-2.514354885E-1,-1.796550304E-1
2.204296900E-2,-1.012999006E-2,-2.525007427E-1,-1.817855537E-1
2.404838600E-2,-1.652157120E-2,-2.588923275E-1,-1.817855537E-1
2.605411500E-2,-1.439104415E-2,-2.610228360E-1,-1.871118695E-1
2.806010400E-2,-1.971736178E-2,-2.631533742E-1,-1.807202995E-1
3.006625000E-2,-2.184788883E-2,-2.610228360E-1,-1.807202995E-1
3.207250000E-2,-2.291315235E-2,-2.642186284E-1,-1.807202995E-1
3.407875000E-2,-2.930473350E-2,-2.631533742E-1,-1.807202995E-1
3.608401100E-2,-2.717420645E-2,-2.642186284E-1,-1.743287146E-1
3.808838600E-2,-3.143525869E-2,-2.642186284E-1,-1.743287146E-1
4.009276100E-2,-2.930473350E-2,-2.631533742E-1,-1.721981913E-1
4.209713600E-2,-3.463105112E-2,-2.684796751E-1,-1.668718755E-1
4.410145900E-2,-3.143525869E-2,-2.695449293E-1,-1.668718755E-1
4.610578200E-2,-3.250052407E-2,-2.684796751E-1,-1.658066064E-1
4.811010400E-2,-3.676158190E-2,-2.663491666E-1,-1.690023988E-1
5.011442700E-2,-3.889210522E-2,-2.663491666E-1,-1.647413373E-1
5.211875000E-2,-4.528369009E-2,-2.695449293E-1,-1.626108140E-1
5.412307300E-2,-4.208789766E-2,-2.663491666E-1,-1.604802907E-1
5.612739600E-2,-4.634895176E-2,-2.631533742E-1,-1.626108140E-1
5.813171900E-2,-5.061000586E-2,-2.674144208E-1,-1.636760831E-1
6.013604200E-2,-5.380579829E-2,-2.695449293E-1,-1.615455449E-1
6.214036500E-2,-5.700159073E-2,-2.727407217E-1,-1.626108140E-1
6.414468800E-2,-5.593632162E-2,-2.674144208E-1,-1.604802907E-1
6.614901100E-2,-6.019737571E-2,-2.695449293E-1,-1.594150215E-1
6.815333400E-2,-6.232790649E-2,-2.674144208E-1,-1.583497524E-1
7.015765700E-2,-6.765422225E-2,-2.695449293E-1,-1.626108140E-1
7.216197900E-2,-6.765422225E-2,-2.727407217E-1,-1.604802907E-1
7.416630200E-2,-6.978475302E-2,-2.727407217E-1,-1.604802907E-1
7.617062500E-2,-6.871949136E-2,-2.748712599E-1,-1.636760831E-1
7.817494800E-2,-6.658896059E-2,-2.759365141E-1,-1.647413373E-1
8.017927100E-2,-7.085001469E-2,-2.748712599E-1,-1.679371297E-1
8.218359400E-2,-7.085001469E-2,-2.770017982E-1,-1.679371297E-1
8.418791700E-2,-6.978475302E-2,-2.759365141E-1,-1.711329222E-1
8.619224000E-2,-7.085001469E-2,-2.759365141E-1,-1.732634455E-1
8.819656300E-2,-6.445842981E-2,-2.738060057E-1,-1.753939688E-1
9.020088600E-2,-6.339316815E-2,-2.716754675E-1,-1.753939688E-1
9.220520900E-2,-6.232790649E-2,-2.716754675E-1,-1.743287146E-1
9.420953200E-2,-6.658896059E-2,-2.695449293E-1,-1.743287146E-1
9.621390700E-2,-6.552369893E-2,-2.663491666E-1,-1.785897613E-1
9.821828200E-2,-6.339316815E-2,-2.674144208E-1,-1.775245070E-1
1.002226570E-1,-6.232790649E-2,-2.610228360E-1,-1.764592379E-1
1.022270320E-1,-6.019737571E-2,-2.631533742E-1,-1.743287146E-1
1.042314070E-1,-6.126264483E-2,-2.588923275E-1,-1.753939688E-1
1.062357820E-1,-5.913211405E-2,-2.578270733E-1,-1.743287146E-1
1.082401570E-1,-5.806685239E-2,-2.556965351E-1,-1.721981913E-1
1.102445320E-1,-6.019737571E-2,-2.599575818E-1,-1.690023988E-1
1.122489070E-1,-5.913211405E-2,-2.514354885E-1,-1.711329222E-1
1.142532820E-1,-6.339316815E-2,-2.525007427E-1,-1.658066064E-1
1.162576570E-1,-6.445842981E-2,-2.482396960E-1,-1.690023988E-1
1.182620320E-1,-6.232790649E-2,-2.418481261E-1,-1.668718755E-1
1.202664070E-1,-6.339316815E-2,-2.407828569E-1,-1.721981913E-1
1.222707820E-1,-6.339316815E-2,-2.354565412E-1,-1.668718755E-1
1.242751570E-1,-6.339316815E-2,-2.290649563E-1,-1.658066064E-1
1.262795320E-1,-6.019737571E-2,-2.301302254E-1,-1.615455449E-1
1.282839070E-1,-5.700159073E-2,-2.237386405E-1,-1.668718755E-1
1.302882820E-1,-6.126264483E-2,-2.226733714E-1,-1.626108140E-1
1.322926570E-1,-5.913211405E-2,-2.120207399E-1,-1.594150215E-1
1.342970320E-1,-6.019737571E-2,-2.120207399E-1,-1.615455449E-1
1.363014070E-1,-6.232790649E-2,-2.120207399E-1,-1.604802907E-1
1.383057820E-1,-5.593632162E-2,-2.077596933E-1,-1.636760831E-1
1.403101570E-1,-6.126264483E-2,-2.013681084E-1,-1.594150215E-1
1.423145320E-1,-5.700159073E-2,-2.024333775E-1,-1.615455449E-1
1.443189070E-1,-5.806685239E-2,-1.992375851E-1,-1.583497524E-1
1.463232820E-1,-5.593632162E-2,-1.875196844E-1,-1.604802907E-1
1.483276570E-1,-5.487105995E-2,-1.843238920E-1,-1.508929133E-1
1.503320320E-1,-5.274053663E-2,-1.779323071E-1,-1.572844982E-1
1.523364070E-1,-5.380579829E-2,-1.768670380E-1,-1.519581825E-1
1.543407820E-1,-4.421842843E-2,-1.747365147E-1,-1.498276591E-1
1.563451570E-1,-4.741421342E-2,-1.715407223E-1,-1.487623900E-1
1.583495320E-1,-4.528369009E-2,-1.662144065E-1,-1.498276591E-1
1.603539070E-1,-4.315315932E-2,-1.640838832E-1,-1.476971209E-1
1.623582820E-1,-4.315315932E-2,-1.598228216E-1,-1.487623900E-1
1.643626570E-1,-3.676158190E-2,-1.555617750E-1,-1.455665976E-1
1.663670320E-1,-3.463105112E-2,-1.523659825E-1,-1.434360743E-1
1.683714070E-1,-3.143525869E-2,-1.481049359E-1,-1.498276591E-1
1.703757820E-1,-3.250052407E-2,-1.459743977E-1,-1.413055360E-1
1.723801570E-1,-2.823946998E-2,-1.427786052E-1,-1.487623900E-1
1.743845320E-1,-2.504367940E-2,-1.374522895E-1,-1.487623900E-1
1.763889070E-1,-2.397841588E-2,-1.342564970E-1,-1.487623900E-1
1.783932820E-1,-1.971736178E-2,-1.342564970E-1,-1.455665976E-1
1.803976570E-1,-1.758683473E-2,-1.278649122E-1,-1.498276591E-1
1.824020320E-1,-1.652157120E-2,-1.225385889E-1,-1.476971209E-1
1.844064070E-1,-9.064726532E-3,-1.246691197E-1,-1.487623900E-1
1.864107820E-1,-5.868935958E-3,-1.182775348E-1,-1.519581825E-1
1.884151570E-1,-7.999463007E-3,-1.172122732E-1,-1.487623900E-1
1.904195320E-1,5.226451904E-4,-1.140164807E-1,-1.476971209E-1
1.924239070E-1,-5.426183343E-4,-1.076249033E-1,-1.466318667E-1
1.944282820E-1,3.718435764E-3,-1.054943725E-1,-1.487623900E-1
1.964326570E-1,1.117528044E-2,-1.012333184E-1,-1.466318667E-1
1.984370320E-1,1.011001691E-2,-9.697226435E-2,-1.445013285E-1
2.004414070E-1,1.224054396E-2,-9.271121025E-2,-1.445013285E-1
2.024457820E-1,1.863212511E-2,-8.738489449E-2,-1.413055360E-1
2.044501570E-1,2.076265216E-2,-8.525437117E-2,-1.402402818E-1
2.064545320E-1,1.756686158E-2,-7.779752463E-2,-1.402402818E-1
2.084589070E-1,2.608896978E-2,-7.353647053E-2,-1.402402818E-1
2.104632820E-1,2.395844273E-2,-7.247120887E-2,-1.381097585E-1
2.124676570E-1,2.182791568E-2,-6.927541643E-2,-1.327834427E-1
2.144720320E-1,2.821949683E-2,-6.394910067E-2,-1.327834427E-1
2.164764070E-1,2.502370626E-2,-6.075330824E-2,-1.306529045E-1
2.184807820E-1,2.289317921E-2,-5.968804657E-2,-1.306529045E-1
2.204851570E-1,1.969738863E-2,-5.755751580E-2,-1.263918579E-1
2.224895320E-1,1.863212511E-2,-5.649225414E-2,-1.253265887E-1
2.244939070E-1,1.863212511E-2,-5.862277746E-2,-1.263918579E-1
2.264982820E-1,1.863212511E-2,-5.649225414E-2,-1.295876503E-1
2.285026570E-1,1.650159806E-2,-5.862277746E-2,-1.178697497E-1
2.305070320E-1,1.330580749E-2,-5.649225414E-2,-1.168044806E-1
2.325114070E-1,9.044753388E-3,-5.649225414E-2,-1.178697497E-1
2.345157820E-1,1.011001691E-2,-6.075330824E-2,-1.125434265E-1
2.365201570E-1,1.011001691E-2,-6.075330824E-2,-1.146739572E-1
2.385245320E-1,1.117528044E-2,-5.436172336E-2,-1.114781648E-1
2.405289070E-1,1.011001691E-2,-5.755751580E-2,-1.136086881E-1
2.425332820E-1,5.848962814E-3,-5.755751580E-2,-1.093476415E-1
2.445376570E-1,7.979489863E-3,-5.542699248E-2,-1.104129031E-1
2.465420320E-1,5.848962814E-3,-5.436172336E-2,-1.082823724E-1
2.485464070E-1,7.979489863E-3,-5.329646170E-2,-1.050865799E-1
2.505507820E-1,3.718435764E-3,-5.436172336E-2,-1.061518490E-1
2.525551570E-1,3.718435764E-3,-5.223120004E-2,-9.869500250E-2
2.545595320E-1,7.979489863E-3,-5.010067299E-2,-9.762974083E-2
2.565639070E-1,3.718435764E-3,-5.329646170E-2,-9.549921006E-2
2.585682820E-1,5.226451904E-4,-5.116593838E-2,-9.123815596E-2
2.605726570E-1,-5.426183343E-4,-5.436172336E-2,-9.123815596E-2
2.625770320E-1,-5.426183343E-4,-5.436172336E-2,-8.484657854E-2
2.645814070E-1,-1.607881859E-3,-5.329646170E-2,-8.271604776E-2
2.665857820E-1,-6.934199482E-3,-5.649225414E-2,-7.845499367E-2
2.685901570E-1,-9.064726532E-3,-5.649225414E-2,-7.525920868E-2
2.705945320E-1,-9.064726532E-3,-5.755751580E-2,-7.632447034E-2
2.725989070E-1,-1.119525358E-2,-5.649225414E-2,-7.525920868E-2
2.746032820E-1,-1.545630768E-2,-5.649225414E-2,-6.886762381E-2
2.766076570E-1,-1.758683473E-2,-5.542699248E-2,-6.886762381E-2
2.786120320E-1,-1.758683473E-2,-5.329646170E-2,-6.567183137E-2
2.806164070E-1,-1.865209825E-2,-5.329646170E-2,-6.247603893E-2
2.826207820E-1,-1.545630768E-2,-4.903540760E-2,-5.821498483E-2
2.846251570E-1,-1.971736178E-2,-4.477435350E-2,-5.821498483E-2
2.866295320E-1,-1.758683473E-2,-4.264383018E-2,-4.969287664E-2
2.886339070E-1,-1.865209825E-2,-3.838277608E-2,-5.182340369E-2
2.906382820E-1,-1.758683473E-2,-3.518698364E-2,-4.969287664E-2
2.926426570E-1,-1.652157120E-2,-2.879540250E-2,-4.969287664E-2
2.946470320E-1,-1.652157120E-2,-2.986066788E-2,-5.288866535E-2
2.966514070E-1,-1.652157120E-2,-2.346908674E-2,-4.543182254E-2
2.986557820E-1,-1.332578063E-2,-2.453434840E-2,-4.649708793E-2
3.006601570E-1,-1.758683473E-2,-2.346908674E-2,-4.543182254E-2
3.026645320E-1,-1.545630768E-2,-2.666487545E-2,-4.436655715E-2
3.046689070E-1,-1.652157120E-2,-3.625224903E-2,-4.117076844E-2
3.066732820E-1,-2.184788883E-2,-4.051330313E-2,-4.117076844E-2
3.086776570E-1,-2.184788883E-2,-4.690488428E-2,-4.117076844E-2
3.106820320E-1,-2.184788883E-2,-5.010067299E-2,-4.010550305E-2
3.126864070E-1,-2.717420645E-2,-5.755751580E-2,-3.158339858E-2
3.146907820E-1,-2.823946998E-2,-5.968804657E-2,-3.690971434E-2
3.166951570E-1,-3.036999702E-2,-5.968804657E-2,-3.690971434E-2
3.186995320E-1,-3.569631651E-2,-6.501436234E-2,-3.051813506E-2
3.207039070E-1,-3.569631651E-2,-6.394910067E-2,-3.051813506E-2
3.227082820E-1,-3.356578946E-2,-6.927541643E-2,-3.051813506E-2
3.247126570E-1,-3.676158190E-2,-6.288383156E-2,-2.945287153E-2
3.267170320E-1,-3.676158190E-2,-6.394910067E-2,-2.625708096E-2
3.287214070E-1,-3.782684356E-2,-6.394910067E-2,-2.838760801E-2
3.307257820E-1,-3.889210522E-2,-6.501436234E-2,-2.732234448E-2
3.327301570E-1,-3.889210522E-2,-6.181856990E-2,-2.519181743E-2
3.347345320E-1,-3.889210522E-2,-6.714488566E-2,-2.306129038E-2
3.367389070E-1,-4.208789766E-2,-6.181856990E-2,-2.412655391E-2
3.387432820E-1,-3.995737433E-2,-6.394910067E-2,-2.412655391E-2
3.407476570E-1,-3.995737433E-2,-6.181856990E-2,-2.519181743E-2
3.427520320E-1,-3.995737433E-2,-6.181856990E-2,-2.732234448E-2
3.447564070E-1,-3.995737433E-2,-5.862277746E-2,-2.199602686E-2
3.467607820E-1,-3.676158190E-2,-5.862277746E-2,-2.199602686E-2
3.487651570E-1,-3.782684356E-2,-5.862277746E-2,-2.199602686E-2
3.507695320E-1,-3.250052407E-2,-5.542699248E-2,-2.625708096E-2
3.527739070E-1,-2.823946998E-2,-5.755751580E-2,-1.986549981E-2
3.547782820E-1,-3.036999702E-2,-5.436172336E-2,-2.519181743E-2
3.567826570E-1,-2.397841588E-2,-5.436172336E-2,-2.093076333E-2
3.587870320E-1,-2.823946998E-2,-5.329646170E-2,-2.199602686E-2
3.607914070E-1,-1.865209825E-2,-5.010067299E-2,-1.986549981E-2
3.627957820E-1,-2.397841588E-2,-5.116593838E-2,-2.412655391E-2
3.648001570E-1,-2.078262530E-2,-4.264383018E-2,-2.412655391E-2
3.668045320E-1,-1.758683473E-2,-3.731751069E-2,-2.519181743E-2
3.688089070E-1,-2.078262530E-2,-3.305645660E-2,-1.986549981E-2
3.708132820E-1,-1.865209825E-2,-2.986066788E-2,-2.519181743E-2
3.728176570E-1,-1.332578063E-2,-2.773014084E-2,-2.199602686E-2
3.748220320E-1,-1.758683473E-2,-2.453434840E-2,-2.093076333E-2
3.768264070E-1,-1.012999006E-2,-1.814276725E-2,-2.412655391E-2
3.788307820E-1,-1.119525358E-2,-1.494697761E-2,-1.986549981E-2
3.808351570E-1,-3.738408908E-3,-1.388171408E-2,-1.986549981E-2
3.828395320E-1,-5.868935958E-3,-1.281645056E-2,-2.093076333E-2
3.848439070E-1,5.226451904E-4,-8.555396460E-3,-1.773497276E-2
3.868482820E-1,1.587908715E-3,-4.294342361E-3,-2.093076333E-2
3.888526570E-1,1.587908715E-3,-2.163815312E-3,-1.773497276E-2
3.908570320E-1,3.718435764E-3,-3.328826278E-5,-2.093076333E-2
3.928614070E-1,1.011001691E-2,2.097238787E-3,-1.986549981E-2
3.948657820E-1,6.914226338E-3,3.162502311E-3,-2.199602686E-2
3.968701570E-1,1.330580749E-2,4.227765836E-3,-2.199602686E-2
3.988745320E-1,1.224054396E-2,1.061934698E-2,-2.412655391E-2
4.008789070E-1,1.437107101E-2,9.554083459E-3,-2.519181743E-2
4.028832820E-1,1.117528044E-2,1.031975262E-3,-2.306129038E-2
4.048876570E-1,1.437107101E-2,1.061934698E-2,-3.371392936E-2
4.068920320E-1,1.437107101E-2,5.293029360E-3,-2.945287153E-2
4.088964070E-1,1.330580749E-2,3.162502311E-3,-3.371392936E-2
4.109007820E-1,1.117528044E-2,-2.163815312E-3,-3.371392936E-2
4.129051570E-1,1.330580749E-2,-2.163815312E-3,-4.117076844E-2
4.149095320E-1,1.011001691E-2,-1.098551787E-3,-3.904024139E-2
4.169139070E-1,9.044753388E-3,-1.068592351E-2,-3.690971434E-2
4.189182820E-1,9.044753388E-3,-8.555396460E-3,-4.117076844E-2
4.209226570E-1,2.653172240E-3,-1.388171408E-2,-4.010550305E-2
4.229270320E-1,1.587908715E-3,-1.920803264E-2,-3.904024139E-2
4.249314070E-1,-1.607881859E-3,-1.707750559E-2,-3.904024139E-2
4.269357820E-1,-5.426183343E-4,-2.453434840E-2,-4.117076844E-2
4.289401570E-1,-2.673145384E-3,-1.920803264E-2,-4.330129549E-2
4.309445320E-1,-2.673145384E-3,-1.920803264E-2,-4.436655715E-2
4.329489070E-1,-1.607881859E-3,-1.920803264E-2,-4.010550305E-2
4.349532820E-1,-3.738408908E-3,-1.707750559E-2,-4.010550305E-2
4.369576570E-1,5.226451904E-4,-1.175118703E-2,-3.904024139E-2
4.389620320E-1,5.226451904E-4,-1.281645056E-2,-3.904024139E-2
4.409664070E-1,2.653172240E-3,-8.555396460E-3,-3.690971434E-2
4.429707820E-1,3.718435764E-3,-6.424869411E-3,-3.264866397E-2
4.449751570E-1,3.718435764E-3,-8.555396460E-3,-3.797497973E-2
4.469795320E-1,3.718435764E-3,-4.294342361E-3,-3.690971434E-2
4.489839070E-1,9.044753388E-3,-9.620659985E-3,-3.690971434E-2
4.509882820E-1,7.979489863E-3,-9.620659985E-3,-3.584444895E-2
4.529926570E-1,1.117528044E-2,-1.281645056E-2,-3.264866397E-2
4.549970320E-1,1.011001691E-2,-1.175118703E-2,-3.264866397E-2
4.570014070E-1,1.437107101E-2,-1.388171408E-2,-3.584444895E-2
4.590057820E-1,1.117528044E-2,-1.281645056E-2,-3.264866397E-2
4.610101570E-1,1.437107101E-2,-1.707750559E-2,-3.584444895E-2
4.630145320E-1,1.437107101E-2,-1.175118703E-2,-2.838760801E-2
4.650189070E-1,1.863212511E-2,-1.175118703E-2,-3.477918729E-2
4.670232820E-1,1.969738863E-2,-9.620659985E-3,-3.158339858E-2
4.690276570E-1,1.330580749E-2,-1.388171408E-2,-3.477918729E-2
4.710320320E-1,1.650159806E-2,-7.490132935E-3,-3.264866397E-2
4.730364070E-1,1.756686158E-2,-8.555396460E-3,-2.945287153E-2
4.750407820E-1,1.543633454E-2,-1.068592351E-2,-3.264866397E-2
4.770451570E-1,1.650159806E-2,-1.281645056E-2,-3.264866397E-2
4.790495320E-1,1.224054396E-2,-1.281645056E-2,-3.690971434E-2
4.810539070E-1,1.330580749E-2,-1.281645056E-2,-3.477918729E-2
4.830582820E-1,1.117528044E-2,-1.388171408E-2,-3.797497973E-2
4.850626570E-1,1.224054396E-2,-1.494697761E-2,-4.010550305E-2
4.870670320E-1,1.224054396E-2,-9.620659985E-3,-3.584444895E-2
4.890714070E-1,9.044753388E-3,-9.620659985E-3,-3.584444895E-2
4.910757820E-1,1.117528044E-2,-9.620659985E-3,-3.371392936E-2
4.930801570E-1,1.437107101E-2,-5.359605886E-3,-3.797497973E-2
4.950845320E-1,7.979489863E-3,-1.098551787E-3,-3.584444895E-2
4.970889070E-1,1.117528044E-2,2.097238787E-3,-3.584444895E-2
4.990932820E-1,9.044753388E-3,5.293029360E-3,-3.158339858E-2
5.010976570E-1,1.224054396E-2,9.554083459E-3,-3.690971434E-2
5.031020320E-1,1.117528044E-2,1.168461051E-2,-3.584444895E-2
5.051064070E-1,1.437107101E-2,1.807619259E-2,-3.690971434E-2
5.071107820E-1,1.437107101E-2,1.594566181E-2,-3.477918729E-2
5.091151570E-1,1.117528044E-2,1.488040108E-2,-2.945287153E-2
5.111195320E-1,1.330580749E-2,1.168461051E-2,-2.945287153E-2
5.131239070E-1,1.756686158E-2,1.594566181E-2,-3.371392936E-2
5.151282820E-1,1.543633454E-2,1.594566181E-2,-3.051813506E-2
5.171326570E-1,1.863212511E-2,1.061934698E-2,-2.945287153E-2
5.191370320E-1,1.543633454E-2,1.381513942E-2,-2.412655391E-2
5.211414070E-1,1.863212511E-2,1.168461051E-2,-2.945287153E-2
5.231457820E-1,1.650159806E-2,7.423556410E-3,-2.412655391E-2
5.251501570E-1,2.076265216E-2,9.554083459E-3,-2.625708096E-2
5.271545320E-1,1.756686158E-2,6.358292885E-3,-2.625708096E-2
5.291589070E-1,1.756686158E-2,4.227765836E-3,-2.412655391E-2
5.311632820E-1,1.543633454E-2,-3.328826278E-5,-1.880023628E-2
5.331676570E-1,1.863212511E-2,-1.098551787E-3,-1.986549981E-2
5.351720320E-1,1.437107101E-2,-1.068592351E-2,-1.560444664E-2
5.371764070E-1,1.117528044E-2,-6.424869411E-3,-1.880023628E-2
5.391807820E-1,9.044753388E-3,-1.494697761E-2,-1.347391959E-2
5.411851570E-1,1.011001691E-2,-1.707750559E-2,-1.773497276E-2
5.431895320E-1,7.979489863E-3,-2.346908674E-2,-2.093076333E-2
5.451939070E-1,7.979489863E-3,-2.133855969E-2,-1.560444664E-2
5.471982820E-1,9.044753388E-3,-3.092592955E-2,-1.560444664E-2
5.492026570E-1,6.914226338E-3,-3.199119493E-2,-1.453918312E-2
5.512070320E-1,4.783699289E-3,-3.092592955E-2,-1.453918312E-2
5.532114070E-1,4.783699289E-3,-3.412172198E-2,-1.880023628E-2
5.552157820E-1,4.783699289E-3,-3.305645660E-2,-1.880023628E-2
5.572201570E-1,4.783699289E-3,-3.092592955E-2,-2.093076333E-2
5.592245320E-1,2.653172240E-3,-3.412172198E-2,-2.093076333E-2
5.612289070E-1,1.587908715E-3,-2.773014084E-2,-1.880023628E-2
5.632332820E-1,4.783699289E-3,-2.879540250E-2,-2.093076333E-2
5.652376570E-1,5.226451904E-4,-2.666487545E-2,-1.986549981E-2
5.672420320E-1,2.653172240E-3,-2.879540250E-2,-2.199602686E-2
5.692464070E-1,1.587908715E-3,-2.453434840E-2,-1.773497276E-2
5.712507820E-1,1.587908715E-3,-2.027329430E-2,-2.093076333E-2
5.732551570E-1,-2.673145384E-3,-2.240382135E-2,-2.199602686E-2
5.752595320E-1,1.587908715E-3,-1.707750559E-2,-2.093076333E-2
5.772639070E-1,5.226451904E-4,-1.601224020E-2,-2.093076333E-2
5.792682820E-1,-5.426183343E-4,-1.388171408E-2,-1.986549981E-2
5.812726570E-1,5.226451904E-4,-1.281645056E-2,-1.986549981E-2
5.832770320E-1,2.653172240E-3,-1.388171408E-2,-2.199602686E-2
5.852814070E-1,-5.426183343E-4,-7.490132935E-3,-2.412655391E-2
5.872857820E-1,5.226451904E-4,-2.163815312E-3,-2.199602686E-2
5.892901570E-1,1.587908715E-3,-2.163815312E-3,-2.306129038E-2
5.912945320E-1,-2.673145384E-3,-1.098551787E-3,-2.519181743E-2
5.932989070E-1,1.587908715E-3,6.358292885E-3,-2.412655391E-2
5.953032820E-1,2.653172240E-3,5.293029360E-3,-2.306129038E-2
5.973076570E-1,-1.607881859E-3,1.168461051E-2,-2.519181743E-2
5.993120320E-1,-1.607881859E-3,1.274987403E-2,-2.945287153E-2
6.013164070E-1,5.226451904E-4,1.701092720E-2,-2.306129038E-2
6.033207820E-1,-2.673145384E-3,1.168461051E-2,-2.519181743E-2
6.053251570E-1,-1.607881859E-3,1.381513942E-2,-2.519181743E-2
6.073295320E-1,-1.607881859E-3,1.594566181E-2,-2.093076333E-2
6.093339070E-1,1.587908715E-3,1.701092720E-2,-2.732234448E-2
6.113382820E-1,4.783699289E-3,1.914145425E-2,-2.306129038E-2
6.133426570E-1,2.653172240E-3,2.020671591E-2,-2.519181743E-2
6.153470320E-1,5.226451904E-4,1.701092720E-2,-2.306129038E-2
6.173514070E-1,2.653172240E-3,1.914145425E-2,-2.732234448E-2
6.193557820E-1,3.718435764E-3,1.594566181E-2,-2.732234448E-2
6.213601570E-1,1.587908715E-3,2.233725041E-2,-2.838760801E-2
6.233645320E-1,3.718435764E-3,1.594566181E-2,-2.519181743E-2
6.253689070E-1,4.783699289E-3,1.914145425E-2,-2.412655391E-2
6.273732820E-1,-2.673145384E-3,2.020671591E-2,-3.051813506E-2
6.293776570E-1,5.226451904E-4,2.020671591E-2,-3.051813506E-2
6.313820320E-1,-2.673145384E-3,2.233725041E-2,-3.371392936E-2
6.333864070E-1,-1.607881859E-3,1.701092720E-2,-3.584444895E-2
6.353907820E-1,-3.738408908E-3,1.488040108E-2,-3.797497973E-2
6.373951570E-1,-5.868935958E-3,1.594566181E-2,-3.584444895E-2
6.393995320E-1,-2.673145384E-3,1.168461051E-2,-3.904024139E-2
6.414039070E-1,-9.064726532E-3,8.488819934E-3,-4.223603383E-2
6.434082820E-1,-9.064726532E-3,7.423556410E-3,-4.223603383E-2
6.454126570E-1,-1.119525358E-2,5.293029360E-3,-4.436655715E-2
6.474170320E-1,-1.119525358E-2,-4.294342361E-3,-4.862761125E-2
6.494214070E-1,-1.012999006E-2,-3.328826278E-5,-4.543182254E-2
6.514257820E-1,-1.226051711E-2,-2.163815312E-3,-4.436655715E-2
6.534301570E-1,-1.439104415E-2,-2.163815312E-3,-5.075814202E-2
6.554345320E-1,-1.971736178E-2,-5.359605886E-3,-4.969287664E-2
6.574389070E-1,-2.078262530E-2,-4.294342361E-3,-4.862761125E-2
6.594432820E-1,-1.971736178E-2,-5.359605886E-3,-4.862761125E-2
6.614476570E-1,-2.291315235E-2,-4.294342361E-3,-5.288866535E-2
6.634520320E-1,-2.397841588E-2,-6.424869411E-3,-5.395393074E-2
6.654564070E-1,-2.823946998E-2,-3.229078837E-3,-5.501919612E-2
6.674607820E-1,-2.930473350E-2,-4.294342361E-3,-5.501919612E-2
6.694651570E-1,-3.250052407E-2,-5.359605886E-3,-5.395393074E-2
6.714695320E-1,-2.823946998E-2,-9.620659985E-3,-5.501919612E-2
6.734739070E-1,-2.930473350E-2,-1.281645056E-2,-5.928025022E-2
6.754782820E-1,-3.143525869E-2,-1.388171408E-2,-5.821498483E-2
6.774826570E-1,-3.036999702E-2,-1.814276725E-2,-5.928025022E-2
6.794870320E-1,-3.569631651E-2,-1.601224020E-2,-5.821498483E-2
6.814914070E-1,-3.889210522E-2,-1.814276725E-2,-5.821498483E-2
6.834957820E-1,-3.676158190E-2,-1.494697761E-2,-5.608445778E-2
6.855001570E-1,-4.102263600E-2,-2.666487545E-2,-5.714971945E-2
6.875045320E-1,-4.421842843E-2,-2.346908674E-2,-5.608445778E-2
6.895089070E-1,-4.421842843E-2,-2.559961379E-2,-5.608445778E-2
6.915132820E-1,-4.421842843E-2,-2.453434840E-2,-5.288866535E-2
6.935176570E-1,-4.741421342E-2,-2.879540250E-2,-5.608445778E-2
6.955220320E-1,-4.954474419E-2,-3.305645660E-2,-5.608445778E-2
6.975264070E-1,-4.847948253E-2,-3.518698364E-2,-5.608445778E-2
6.995307820E-1,-5.274053663E-2,-3.625224903E-2,-5.288866535E-2
7.015351570E-1,-4.954474419E-2,-3.944803774E-2,-5.288866535E-2
7.035395320E-1,-5.167526752E-2,-4.477435350E-2,-5.608445778E-2
7.055439070E-1,-4.954474419E-2,-4.797014594E-2,-5.608445778E-2
7.075482820E-1,-5.061000586E-2,-5.329646170E-2,-5.395393074E-2
7.095526570E-1,-5.061000586E-2,-5.329646170E-2,-5.288866535E-2
7.115570320E-1,-5.380579829E-2,-5.542699248E-2,-5.501919612E-2
7.135614070E-1,-5.274053663E-2,-6.927541643E-2,-5.395393074E-2
7.155657820E-1,-5.806685239E-2,-6.607962400E-2,-5.821498483E-2
7.175701570E-1,-5.913211405E-2,-7.460173219E-2,-5.395393074E-2
7.195745320E-1,-6.126264483E-2,-7.992804796E-2,-5.821498483E-2
7.215789070E-1,-5.806685239E-2,-8.099331707E-2,-5.928025022E-2
7.235832820E-1,-6.339316815E-2,-9.377647936E-2,-5.501919612E-2
7.255876570E-1,-6.126264483E-2,-9.910279512E-2,-5.395393074E-2
7.275920320E-1,-6.126264483E-2,-1.044291109E-1,-5.288866535E-2
7.295964070E-1,-6.552369893E-2,-1.086901650E-1,-5.288866535E-2
7.316007820E-1,-6.658896059E-2,-1.172122732E-1,-5.395393074E-2
7.336051570E-1,-6.978475302E-2,-1.267996430E-1,-5.182340369E-2
7.356095320E-1,-7.298053801E-2,-1.331912279E-1,-5.395393074E-2
7.376139070E-1,-7.830686122E-2,-1.417133510E-1,-5.075814202E-2
7.396182820E-1,-7.724159956E-2,-1.502354592E-1,-5.182340369E-2
7.416226570E-1,-8.363317698E-2,-1.619533598E-1,-4.756234959E-2
7.436270320E-1,-9.002475441E-2,-1.683449447E-1,-5.075814202E-2
7.456314070E-1,-9.961213171E-2,-1.715407223E-1,-5.075814202E-2
7.476357820E-1,-1.017426550E-1,-1.832586229E-1,-5.288866535E-2
7.496401570E-1,-1.028079242E-1,-1.896502078E-1,-5.075814202E-2
7.516445320E-1,-1.081342399E-1,-1.971070468E-1,-5.501919612E-2
7.536489070E-1,-1.155910790E-1,-2.098902166E-1,-5.288866535E-2
7.556532820E-1,-1.177216098E-1,-2.194775939E-1,-5.608445778E-2
7.576576570E-1,-1.294395030E-1,-2.333260179E-1,-5.501919612E-2
7.596620320E-1,-1.347658336E-1,-2.450439036E-1,-5.608445778E-2
7.616664070E-1,-1.411574036E-1,-2.578270733E-1,-6.034551188E-2
7.636707820E-1,-1.496795118E-1,-2.706102133E-1,-5.928025022E-2
7.656751570E-1,-1.528753042E-1,-2.865891457E-1,-5.714971945E-2
7.676795320E-1,-1.613974124E-1,-3.015028536E-1,-5.608445778E-2
7.696839070E-1,-1.656584740E-1,-3.260039091E-1,-5.501919612E-2
7.716882820E-1,-1.699195206E-1,-3.398523331E-1,-5.075814202E-2
7.736926570E-1,-1.773763597E-1,-3.622228801E-1,-4.862761125E-2
7.756970320E-1,-1.890942603E-1,-3.782018125E-1,-4.330129549E-2
7.777014070E-1,-1.901595294E-1,-4.016376138E-1,-4.543182254E-2
7.797057820E-1,-1.986816376E-1,-4.208123684E-1,-4.436655715E-2
7.817101570E-1,-2.061384767E-1,-4.463786781E-1,-4.117076844E-2
7.837145320E-1,-2.157258540E-1,-4.591618478E-1,-4.223603383E-2
7.857189070E-1,-2.231826931E-1,-4.772713184E-1,-3.690971434E-2
7.877232820E-1,-2.263784856E-1,-4.996418655E-1,-4.117076844E-2
7.897276570E-1,-2.349005938E-1,-5.113598108E-1,-4.330129549E-2
7.917320320E-1,-2.434227020E-1,-5.273388028E-1,-3.904024139E-2
7.937364070E-1,-2.519448102E-1,-5.401219130E-1,-3.797497973E-2
7.957407820E-1,-2.540753484E-1,-5.518398285E-1,-3.690971434E-2
7.977451570E-1,-2.615321577E-1,-5.592966676E-1,-3.051813506E-2
7.997495320E-1,-2.657932043E-1,-5.624924898E-1,-3.371392936E-2
8.017539070E-1,-2.732500434E-1,-5.667535067E-1,-2.625708096E-2
8.037582820E-1,-2.785763741E-1,-5.688840747E-1,-2.199602686E-2
8.057626570E-1,-2.828374207E-1,-5.710145831E-1,-1.560444664E-2
8.077670320E-1,-2.881637514E-1,-5.731450915E-1,-1.347391959E-2
8.097714070E-1,-2.945553362E-1,-5.742103457E-1,-1.027812809E-2
8.117757820E-1,-2.966858447E-1,-5.752756596E-1,-1.560444664E-2
8.137801570E-1,-2.998816371E-1,-5.720798373E-1,-1.134339254E-2
8.157845320E-1,-2.945553362E-1,-5.720798373E-1,-1.240865607E-2
8.177889070E-1,-2.988163829E-1,-5.710145831E-1,-1.347391959E-2
8.197932820E-1,-3.009469211E-1,-5.667535067E-1,-1.240865607E-2
8.217976570E-1,-2.988163829E-1,-5.688840747E-1,-1.453918312E-2
8.238020320E-1,-2.998816371E-1,-5.667535067E-1,-1.240865607E-2
8.258064070E-1,-2.988163829E-1,-5.646229982E-1,-1.773497276E-2
8.278107820E-1,-2.998816371E-1,-5.646229982E-1,-1.666970924E-2
8.298151570E-1,-3.009469211E-1,-5.624924898E-1,-1.773497276E-2
8.318195320E-1,-2.998816371E-1,-5.571661592E-1,-1.880023628E-2
8.338239070E-1,-3.030774295E-1,-5.561009049E-1,-2.306129038E-2
8.358282820E-1,-2.988163829E-1,-5.486440659E-1,-2.519181743E-2
8.378326570E-1,-2.966858447E-1,-5.497093201E-1,-2.732234448E-2
8.398370320E-1,-2.977511287E-1,-5.433177352E-1,-3.051813506E-2
8.418414070E-1,-2.977511287E-1,-5.401219130E-1,-2.945287153E-2
8.438457820E-1,-2.977511287E-1,-5.347956419E-1,-3.690971434E-2
8.458501570E-1,-2.966858447E-1,-5.390566587E-1,-3.904024139E-2
8.478545320E-1,-2.988163829E-1,-5.379914045E-1,-4.010550305E-2
8.498589070E-1,-2.956205904E-1,-5.273388028E-1,-4.862761125E-2
8.518632820E-1,-2.966858447E-1,-5.230777264E-1,-5.821498483E-2
8.538676570E-1,-2.966858447E-1,-5.198819041E-1,-6.141077355E-2
8.558720320E-1,-2.945553362E-1,-5.177513957E-1,-6.780236214E-2
8.578764070E-1,-2.966858447E-1,-5.113598108E-1,-6.886762381E-2
8.598807820E-1,-2.956205904E-1,-5.028376579E-1,-7.099814713E-2
8.618851570E-1,-2.892290056E-1,-5.007071495E-1,-7.632447034E-2
8.638895320E-1,-2.945553362E-1,-4.911197424E-1,-7.952025533E-2
8.658939070E-1,-2.924247980E-1,-4.857934415E-1,-8.271604776E-2
8.678982820E-1,-2.924247980E-1,-4.783366024E-1,-8.910763264E-2
8.699026570E-1,-2.881637514E-1,-4.634228945E-1,-9.443394840E-2
8.719070320E-1,-2.870984674E-1,-4.559660554E-1,-9.869500250E-2
8.739114070E-1,-2.860332131E-1,-4.474439621E-1,-1.093476415E-1
8.759157820E-1,-2.839026749E-1,-4.346607924E-1,-1.072171107E-1
8.779201570E-1,-2.828374207E-1,-4.303997457E-1,-1.114781648E-1
8.799245320E-1,-2.796416283E-1,-4.165513217E-1,-1.136086881E-1
8.819289070E-1,-2.785763741E-1,-4.069639444E-1,-1.146739572E-1
8.839332820E-1,-2.743153274E-1,-3.963113129E-1,-1.242613271E-1
8.859376570E-1,-2.721847892E-1,-3.803323507E-1,-1.253265887E-1
8.879419790E-1,-2.636626959E-1,-3.750060201E-1,-1.253265887E-1
8.899463020E-1,-2.615321577E-1,-3.622228801E-1,-1.295876503E-1
8.919506250E-1,-2.594016194E-1,-3.515702486E-1,-1.381097585E-1
8.939549480E-1,-2.530100644E-1,-3.387870789E-1,-1.423708051E-1
8.959592710E-1,-2.466184944E-1,-3.281344473E-1,-1.413055360E-1
8.979635940E-1,-2.391616553E-1,-3.110902309E-1,-1.466318667E-1
8.999679170E-1,-2.295742780E-1,-2.961765230E-1,-1.540887058E-1
9.019722400E-1,-2.253132313E-1,-2.770017982E-1,-1.540887058E-1
9.039765630E-1,-2.125300616E-1,-2.631533742E-1,-1.583497524E-1
9.059808860E-1,-2.072037458E-1,-2.407828569E-1,-1.658066064E-1
9.079852090E-1,-1.997469068E-1,-2.226733714E-1,-1.668718755E-1
9.099895320E-1,-1.922900528E-1,-2.045639008E-1,-1.690023988E-1
9.119938540E-1,-1.795068979E-1,-1.832586229E-1,-1.721981913E-1
9.139981770E-1,-1.741805822E-1,-1.640838832E-1,-1.647413373E-1
9.160025000E-1,-1.613974124E-1,-1.449091434E-1,-1.658066064E-1
9.180068230E-1,-1.550058275E-1,-1.182775348E-1,-1.508929133E-1
9.200111460E-1,-1.507447809E-1,-9.910279512E-2,-1.466318667E-1
9.220154690E-1,-1.454184651E-1,-8.099331707E-2,-1.498276591E-1
9.240197920E-1,-1.347658336E-1,-6.714488566E-2,-1.476971209E-1
9.260241150E-1,-1.294395030E-1,-5.116593838E-2,-1.455665976E-1
9.280284380E-1,-1.166563481E-1,-4.370909184E-2,-1.434360743E-1
9.300327610E-1,-1.102647632E-1,-2.773014084E-2,-1.391750127E-1
9.320370840E-1,-9.961213171E-2,-1.494697761E-2,-1.391750127E-1
9.340414070E-1,-9.002475441E-2,-3.229078837E-3,-1.317181736E-1
9.360457290E-1,-8.256791532E-2,8.488819934E-3,-1.349139661E-1
9.380500520E-1,-8.150264621E-2,1.168461051E-2,-1.295876503E-1
9.400544270E-1,-7.830686122E-2,2.446777374E-2,-1.221307963E-1
9.420588020E-1,-7.617633045E-2,3.512041271E-2,-1.093476415E-1
9.440631770E-1,-7.404580712E-2,4.151199013E-2,-1.061518490E-1
9.460675520E-1,-7.724159956E-2,4.577304423E-2,-1.104129031E-1
9.480719270E-1,-7.511106879E-2,4.470778257E-2,-1.189350113E-1
9.500763020E-1,-6.552369893E-2,3.831619769E-2,-1.189350113E-1
9.520806770E-1,-6.445842981E-2,4.151199013E-2,-1.146739572E-1
9.540850520E-1,-5.913211405E-2,4.577304423E-2,-1.114781648E-1
9.560894270E-1,-5.913211405E-2,4.683831334E-2,-1.221307963E-1
9.580938020E-1,-6.126264483E-2,4.470778257E-2,-1.242613271E-1
9.600981770E-1,-5.806685239E-2,4.364252090E-2,-1.253265887E-1
9.621025520E-1,-5.380579829E-2,4.790357500E-2,-1.274571121E-1
9.641069270E-1,-5.487105995E-2,4.896883667E-2,-1.306529045E-1
9.661113020E-1,-5.380579829E-2,5.003409833E-2,-1.349139661E-1
9.681156770E-1,-5.167526752E-2,5.003409833E-2,-1.413055360E-1
9.701200520E-1,-4.847948253E-2,5.109935999E-2,-1.381097585E-1
9.721244270E-1,-5.593632162E-2,5.322989076E-2,-1.402402818E-1
9.741288020E-1,-5.806685239E-2,5.642568320E-2,-1.423708051E-1
9.761331770E-1,-6.339316815E-2,5.429515243E-2,-1.519581825E-1
9.781375520E-1,-6.019737571E-2,4.790357500E-2,-1.562192291E-1
9.801419270E-1,-6.339316815E-2,4.364252090E-2,-1.668718755E-1
9.821463020E-1,-5.700159073E-2,4.257725179E-2,-1.700676531E-1
9.841506770E-1,-6.126264483E-2,3.938146681E-2,-1.775245070E-1
9.861550520E-1,-6.339316815E-2,3.298988193E-2,-1.775245070E-1
9.881594270E-1,-6.552369893E-2,3.192462027E-2,-1.849813461E-1
9.901638020E-1,-7.617633045E-2,2.766356617E-2,-1.839160919E-1
9.921681770E-1,-7.511106879E-2,2.340251207E-2,-1.903076619E-1
9.941725520E-1,-8.469843864E-2,1.807619259E-2,-1.924381852E-1
9.961769270E-1,-8.789423108E-2,1.274987403E-2,-1.977645159E-1
9.981813020E-1,-8.895949274E-2,1.061934698E-2,-1.956339777E-1
1.000185677E0,-9.748160094E-2,5.293029360E-3,-1.988297701E-1
1.002190052E0,-9.535107762E-2,-1.098551787E-3,-1.966992468E-1
1.004194427E0,-1.049384475E-1,-1.068592351E-2,-2.030908316E-1
1.006198802E0,-1.070689708E-1,-1.494697761E-2,-2.020255625E-1
1.008203177E0,-1.102647632E-1,-2.346908674E-2,-2.020255625E-1
1.010207552E0,-1.145258173E-1,-2.986066788E-2,-1.998950392E-1
1.012211927E0,-1.187868714E-1,-3.518698364E-2,-2.009603083E-1
1.014216302E0,-1.209174022E-1,-4.477435350E-2,-2.009603083E-1
1.016220677E0,-1.177216098E-1,-5.542699248E-2,-2.020255625E-1
1.018225052E0,-1.251784563E-1,-6.501436234E-2,-1.998950392E-1
1.020229427E0,-1.283742487E-1,-7.566699386E-2,-1.998950392E-1
1.022233802E0,-1.305047721E-1,-8.738489449E-2,-1.988297701E-1
1.024238177E0,-1.326352954E-1,-9.484174103E-2,-1.977645159E-1
1.026242552E0,-1.358310878E-1,-1.044291109E-1,-1.977645159E-1
1.028246927E0,-1.400921494E-1,-1.214733273E-1,-1.966992468E-1
1.030251302E0,-1.432879269E-1,-1.331912279E-1,-1.977645159E-1
1.032255677E0,-1.454184651E-1,-1.427786052E-1,-2.009603083E-1
1.034260052E0,-1.496795118E-1,-1.534312516E-1,-1.956339777E-1
1.036264427E0,-1.550058275E-1,-1.662144065E-1,-1.945687234E-1
1.038268802E0,-1.571363658E-1,-1.758017838E-1,-1.945687234E-1
1.040273177E0,-1.613974124E-1,-1.843238920E-1,-1.881771386E-1
1.042277552E0,-1.635279357E-1,-1.992375851E-1,-1.871118695E-1
1.044281927E0,-1.688542664E-1,-2.098902166E-1,-1.881771386E-1
1.046286302E0,-1.709847897E-1,-2.205428481E-1,-1.849813461E-1
1.048290677E0,-1.699195206E-1,-2.269344330E-1,-1.828508228E-1
1.050295052E0,-1.720500439E-1,-2.386523336E-1,-1.839160919E-1
1.052299427E0,-1.763111055E-1,-2.439786494E-1,-1.764592379E-1
1.054303802E0,-1.805721521E-1,-2.429133803E-1,-1.753939688E-1
1.056308177E0,-1.805721521E-1,-2.535660267E-1,-1.711329222E-1
1.058312552E0,-1.805721521E-1,-2.546312809E-1,-1.711329222E-1
1.060316927E0,-1.858984828E-1,-2.588923275E-1,-1.711329222E-1
1.062321302E0,-1.837679446E-1,-2.588923275E-1,-1.732634455E-1
1.064325677E0,-1.858984828E-1,-2.620880902E-1,-1.743287146E-1
1.066330052E0,-1.869637370E-1,-2.663491666E-1,-1.690023988E-1
1.068334427E0,-1.837679446E-1,-2.695449293E-1,-1.658066064E-1
1.070338802E0,-1.901595294E-1,-2.812628448E-1,-1.658066064E-1
1.072343177E0,-1.869637370E-1,-2.759365141E-1,-1.658066064E-1
1.074347552E0,-1.901595294E-1,-2.865891457E-1,-1.626108140E-1
1.076351927E0,-1.933553219E-1,-2.929807305E-1,-1.572844982E-1
1.078356302E0,-1.901595294E-1,-2.983070612E-1,-1.615455449E-1
1.080360677E0,-1.912247986E-1,-3.046986461E-1,-1.615455449E-1
1.082365052E0,-1.922900528E-1,-3.089596927E-1,-1.583497524E-1
1.084369427E0,-1.944205761E-1,-3.153512776E-1,-1.508929133E-1
1.086373802E0,-1.922900528E-1,-3.196123242E-1,-1.551539749E-1
1.088378177E0,-1.954858452E-1,-3.302649558E-1,-1.508929133E-1
1.090382552E0,-2.008121610E-1,-3.377217948E-1,-1.498276591E-1
1.092386927E0,-2.029426992E-1,-3.430481255E-1,-1.498276591E-1
1.094391302E0,-1.986816376E-1,-3.473091722E-1,-1.445013285E-1
1.096395677E0,-2.008121610E-1,-3.558312953E-1,-1.519581825E-1
1.098400052E0,-1.997469068E-1,-3.632881343E-1,-1.498276591E-1
1.100404427E0,-2.040079534E-1,-3.707449734E-1,-1.466318667E-1
1.102408802E0,-2.018774301E-1,-3.792670965E-1,-1.498276591E-1
1.104413177E0,-2.040079534E-1,-3.824628890E-1,-1.487623900E-1
1.106417552E0,-2.050732225E-1,-3.963113129E-1,-1.487623900E-1
1.108421927E0,-2.040079534E-1,-4.037681520E-1,-1.434360743E-1
1.110426302E0,-2.050732225E-1,-4.133555293E-1,-1.423708051E-1
1.112430677E0,-2.050732225E-1,-4.218776226E-1,-1.476971209E-1
1.114435052E0,-2.061384767E-1,-4.282692075E-1,-1.402402818E-1
1.116439427E0,-2.114647925E-1,-4.410523772E-1,-1.466318667E-1
1.118443802E0,-2.103995383E-1,-4.474439621E-1,-1.423708051E-1
1.120448177E0,-2.125300616E-1,-4.570313096E-1,-1.445013285E-1
1.122452552E0,-2.135953307E-1,-4.740755260E-1,-1.413055360E-1
1.124456927E0,-2.114647925E-1,-4.794018567E-1,-1.413055360E-1
1.126461302E0,-2.167911232E-1,-4.879239798E-1,-1.413055360E-1
1.128465677E0,-2.135953307E-1,-5.007071495E-1,-1.391750127E-1
1.130470052E0,-2.221174389E-1,-5.039029121E-1,-1.423708051E-1
1.132474427E0,-2.210521698E-1,-5.124250650E-1,-1.338486969E-1
1.134478802E0,-2.231826931E-1,-5.145555735E-1,-1.391750127E-1
1.136483177E0,-2.231826931E-1,-5.262734890E-1,-1.423708051E-1
1.138487552E0,-2.295742780E-1,-5.326650739E-1,-1.349139661E-1
1.140491927E0,-2.306395471E-1,-5.347956419E-1,-1.327834427E-1
1.142496302E0,-2.359658629E-1,-5.422524810E-1,-1.317181736E-1
1.144500677E0,-2.349005938E-1,-5.454482436E-1,-1.327834427E-1
1.146505052E0,-2.412921786E-1,-5.486440659E-1,-1.231960654E-1
1.148509427E0,-2.434227020E-1,-5.529050827E-1,-1.221307963E-1
1.150513802E0,-2.476837635E-1,-5.614272356E-1,-1.189350113E-1
1.152518177E0,-2.487490177E-1,-5.656882524E-1,-1.104129031E-1
1.154522552E0,-2.508795559E-1,-5.710145831E-1,-1.114781648E-1
1.156526927E0,-2.572711110E-1,-5.731450915E-1,-1.018907949E-1
1.158531302E0,-2.594016194E-1,-5.784714222E-1,-9.869500250E-2
1.160535677E0,-2.625974119E-1,-5.806019306E-1,-9.656447172E-2
1.162540052E0,-2.700542510E-1,-5.848630071E-1,-8.804236352E-2
1.164544427E0,-2.700542510E-1,-5.827324986E-1,-9.123815596E-2
1.166548802E0,-2.743153274E-1,-5.901893377E-1,-8.165078610E-2
1.168553177E0,-2.753805816E-1,-5.901893377E-1,-8.271604776E-2
1.170557552E0,-2.764458358E-1,-5.944503546E-1,-8.165078610E-2
1.172561927E0,-2.775111198E-1,-5.965809226E-1,-7.738973200E-2
1.174566302E0,-2.796416283E-1,-6.008419394E-1,-7.952025533E-2
1.176570677E0,-2.807069123E-1,-6.019071937E-1,-7.206341624E-2
1.178575052E0,-2.807069123E-1,-6.019071937E-1,-7.419393957E-2
1.180579427E0,-2.849679589E-1,-6.040377617E-1,-6.993288547E-2
1.182583802E0,-2.807069123E-1,-6.061682701E-1,-7.525920868E-2
1.184588177E0,-2.764458358E-1,-6.082987785E-1,-7.738973200E-2
1.186592552E0,-2.775111198E-1,-6.051030159E-1,-7.525920868E-2
1.188596927E0,-2.743153274E-1,-6.093640924E-1,-7.312867790E-2
1.190601302E0,-2.732500434E-1,-6.104293466E-1,-7.206341624E-2
1.192605677E0,-2.711195350E-1,-6.104293466E-1,-7.632447034E-2
1.194610052E0,-2.625974119E-1,-6.114946008E-1,-7.525920868E-2
1.196614427E0,-2.594016194E-1,-6.136251092E-1,-8.058552444E-2
1.198618802E0,-2.572711110E-1,-6.114946008E-1,-7.952025533E-2
1.200623177E0,-2.540753484E-1,-6.072335243E-1,-7.845499367E-2
1.202627552E0,-2.487490177E-1,-6.082987785E-1,-7.845499367E-2
1.204631927E0,-2.434227020E-1,-6.051030159E-1,-8.165078610E-2
1.206636302E0,-2.412921786E-1,-6.029725075E-1,-8.271604776E-2
1.208640677E0,-2.359658629E-1,-6.040377617E-1,-8.271604776E-2
1.210645052E0,-2.306395471E-1,-5.976461768E-1,-8.378131688E-2
1.212649427E0,-2.317048013E-1,-5.965809226E-1,-8.484657854E-2
1.214653802E0,-2.274437547E-1,-5.933851004E-1,-8.804236352E-2
1.216658177E0,-2.221174389E-1,-5.923198462E-1,-8.910763264E-2
1.218662552E0,-2.242479622E-1,-5.944503546E-1,-8.378131688E-2
1.220666927E0,-2.242479622E-1,-5.955156684E-1,-8.804236352E-2
1.222671302E0,-2.253132313E-1,-5.933851004E-1,-9.123815596E-2
1.224675677E0,-2.242479622E-1,-5.933851004E-1,-9.017289430E-2
1.226680052E0,-2.231826931E-1,-5.912545919E-1,-9.123815596E-2
1.228684427E0,-2.295742780E-1,-5.880587697E-1,-8.804236352E-2
1.230688802E0,-2.263784856E-1,-5.837977529E-1,-8.591184020E-2
1.232693177E0,-2.317048013E-1,-5.806019306E-1,-8.910763264E-2
1.234697552E0,-2.327700704E-1,-5.827324986E-1,-8.271604776E-2
1.236701927E0,-2.317048013E-1,-5.763409138E-1,-8.484657854E-2
1.238706302E0,-2.359658629E-1,-5.795366764E-1,-8.058552444E-2
1.240710677E0,-2.402269095E-1,-5.774061680E-1,-8.058552444E-2
1.242715052E0,-2.370311320E-1,-5.774061680E-1,-8.165078610E-2
1.244719427E0,-2.359658629E-1,-5.731450915E-1,-7.632447034E-2
1.246723802E0,-2.423574477E-1,-5.763409138E-1,-7.525920868E-2
1.248728177E0,-2.444879711E-1,-5.763409138E-1,-7.738973200E-2
1.250732552E0,-2.434227020E-1,-5.731450915E-1,-7.419393957E-2
1.252736927E0,-2.487490177E-1,-5.752756596E-1,-7.312867790E-2
1.254741302E0,-2.466184944E-1,-5.742103457E-1,-7.099814713E-2
1.256745677E0,-2.519448102E-1,-5.752756596E-1,-6.886762381E-2
1.258750052E0,-2.519448102E-1,-5.742103457E-1,-7.206341624E-2
1.260754427E0,-2.519448102E-1,-5.720798373E-1,-6.780236214E-2
1.262758802E0,-2.530100644E-1,-5.699493289E-1,-6.780236214E-2
1.264763177E0,-2.551405728E-1,-5.720798373E-1,-6.567183137E-2
1.266767552E0,-2.551405728E-1,-5.731450915E-1,-6.141077355E-2
1.268771927E0,-2.551405728E-1,-5.731450915E-1,-6.034551188E-2
1.270776302E0,-2.530100644E-1,-5.752756596E-1,-5.821498483E-2
1.272780677E0,-2.551405728E-1,-5.699493289E-1,-5.395393074E-2
1.274785052E0,-2.604669034E-1,-5.699493289E-1,-5.501919612E-2
1.276789427E0,-2.551405728E-1,-5.582314134E-1,-6.354130805E-2
1.278793802E0,-2.583363652E-1,-5.603619218E-1,-5.608445778E-2
1.280798177E0,-2.572711110E-1,-5.592966676E-1,-6.141077355E-2
1.282802552E0,-2.562058270E-1,-5.486440659E-1,-6.034551188E-2
1.284806927E0,-2.615321577E-1,-5.465134978E-1,-6.354130805E-2
1.286811302E0,-2.562058270E-1,-5.433177352E-1,-6.460656971E-2
1.288815677E0,-2.583363652E-1,-5.401219130E-1,-6.354130805E-2
1.290820052E0,-2.594016194E-1,-5.337303281E-1,-6.673710048E-2
1.292824427E0,-2.562058270E-1,-5.273388028E-1,-6.886762381E-2
1.294828802E0,-2.604669034E-1,-5.220124722E-1,-6.993288547E-2
1.296833177E0,-2.540753484E-1,-5.220124722E-1,-7.206341624E-2
1.298837552E0,-2.572711110E-1,-5.198819041E-1,-7.099814713E-2
1.300841927E0,-2.551405728E-1,-5.134903193E-1,-7.525920868E-2
1.302846302E0,-2.519448102E-1,-5.070987344E-1,-7.419393957E-2
1.304850677E0,-2.540753484E-1,-5.060334802E-1,-7.845499367E-2
1.306855052E0,-2.487490177E-1,-4.996418655E-1,-7.632447034E-2
1.308859427E0,-2.508795559E-1,-5.017724037E-1,-7.952025533E-2
1.310863802E0,-2.508795559E-1,-4.975113273E-1,-7.845499367E-2
1.312868177E0,-2.519448102E-1,-5.007071495E-1,-7.952025533E-2
1.314872552E0,-2.508795559E-1,-4.996418655E-1,-7.952025533E-2
1.316876927E0,-2.476837635E-1,-4.932502806E-1,-8.058552444E-2
1.318881302E0,-2.519448102E-1,-4.975113273E-1,-7.845499367E-2
1.320885677E0,-2.519448102E-1,-4.953808188E-1,-8.271604776E-2
1.322890052E0,-2.519448102E-1,-4.953808188E-1,-8.591184020E-2
1.324894427E0,-2.498142868E-1,-4.975113273E-1,-8.165078610E-2
1.326898802E0,-2.508795559E-1,-4.975113273E-1,-8.484657854E-2
1.328903177E0,-2.508795559E-1,-5.017724037E-1,-8.484657854E-2
1.330907552E0,-2.487490177E-1,-4.975113273E-1,-8.378131688E-2
1.332911927E0,-2.498142868E-1,-4.985766113E-1,-8.910763264E-2
1.334916302E0,-2.519448102E-1,-4.964460731E-1,-8.697710186E-2
1.336920677E0,-2.508795559E-1,-4.964460731E-1,-8.271604776E-2
1.338925052E0,-2.487490177E-1,-4.975113273E-1,-8.697710186E-2
1.340929427E0,-2.498142868E-1,-4.985766113E-1,-8.378131688E-2
1.342933802E0,-2.540753484E-1,-4.943155348E-1,-8.591184020E-2
1.344938177E0,-2.508795559E-1,-4.857934415E-1,-8.058552444E-2
1.346942552E0,-2.508795559E-1,-4.879239798E-1,-8.378131688E-2
1.348946927E0,-2.540753484E-1,-4.836629033E-1,-8.378131688E-2
1.350951302E0,-2.530100644E-1,-4.794018567E-1,-7.845499367E-2
1.352955677E0,-2.572711110E-1,-4.751408100E-1,-7.419393957E-2
1.354960052E0,-2.551405728E-1,-4.708797336E-1,-7.738973200E-2
1.356964427E0,-2.551405728E-1,-4.666186869E-1,-7.312867790E-2
1.358968802E0,-2.530100644E-1,-4.634228945E-1,-7.419393957E-2
1.360973177E0,-2.583363652E-1,-4.655534327E-1,-7.419393957E-2
1.362977552E0,-2.572711110E-1,-4.570313096E-1,-6.886762381E-2
1.364981927E0,-2.615321577E-1,-4.570313096E-1,-6.567183137E-2
1.366986302E0,-2.604669034E-1,-4.527702630E-1,-6.141077355E-2
1.368990677E0,-2.657932043E-1,-4.559660554E-1,-5.928025022E-2
1.370995052E0,-2.668584883E-1,-4.517050087E-1,-5.288866535E-2
1.372999427E0,-2.636626959E-1,-4.485092163E-1,-5.928025022E-2
1.375003802E0,-2.679237425E-1,-4.527702630E-1,-5.501919612E-2
1.377008177E0,-2.700542510E-1,-4.517050087E-1,-4.756234959E-2
1.379012552E0,-2.721847892E-1,-4.517050087E-1,-4.756234959E-2
1.381016927E0,-2.732500434E-1,-4.495744705E-1,-4.862761125E-2
1.383021302E0,-2.743153274E-1,-4.527702630E-1,-4.543182254E-2
1.385025677E0,-2.817721665E-1,-4.517050087E-1,-4.330129549E-2
1.387030052E0,-2.828374207E-1,-4.549008012E-1,-4.330129549E-2
1.389034427E0,-2.849679589E-1,-4.538355470E-1,-4.117076844E-2
1.391038802E0,-2.860332131E-1,-4.591618478E-1,-4.010550305E-2
1.393043177E0,-2.892290056E-1,-4.559660554E-1,-3.690971434E-2
1.395047552E0,-2.881637514E-1,-4.644881785E-1,-3.797497973E-2
1.397051927E0,-2.902942598E-1,-4.644881785E-1,-3.797497973E-2
1.399056302E0,-2.966858447E-1,-4.676839709E-1,-3.584444895E-2
1.401060677E0,-2.977511287E-1,-4.708797336E-1,-2.838760801E-2
1.403065052E0,-2.956205904E-1,-4.751408100E-1,-3.158339858E-2
1.405069427E0,-2.966858447E-1,-4.772713184E-1,-3.158339858E-2
1.407073802E0,-2.988163829E-1,-4.783366024E-1,-2.412655391E-2
1.409078177E0,-2.966858447E-1,-4.815323949E-1,-2.412655391E-2
1.411082552E0,-3.041426837E-1,-4.857934415E-1,-2.093076333E-2
1.413086927E0,-2.977511287E-1,-4.868586957E-1,-2.306129038E-2
1.415091302E0,-3.020121753E-1,-4.889892340E-1,-1.773497276E-2
1.417095677E0,-2.966858447E-1,-4.921850264E-1,-2.199602686E-2
1.419100052E0,-2.966858447E-1,-4.953808188E-1,-1.986549981E-2
1.421104427E0,-2.945553362E-1,-4.932502806E-1,-1.986549981E-2
1.423108802E0,-2.966858447E-1,-4.932502806E-1,-1.773497276E-2
1.425113177E0,-2.924247980E-1,-4.985766113E-1,-1.240865607E-2
1.427117552E0,-2.913595438E-1,-4.953808188E-1,-1.453918312E-2
1.429121927E0,-2.828374207E-1,-4.921850264E-1,-1.453918312E-2
1.431126302E0,-2.828374207E-1,-4.921850264E-1,-1.347391959E-2
1.433130677E0,-2.828374207E-1,-4.900544882E-1,-9.212864563E-3
1.435135052E0,-2.775111198E-1,-4.847281873E-1,-1.240865607E-2
1.437139427E0,-2.721847892E-1,-4.825976491E-1,-8.147601038E-3
1.439143802E0,-2.711195350E-1,-4.794018567E-1,-4.951810464E-3
1.441148177E0,-2.679237425E-1,-4.772713184E-1,-3.886547172E-3
1.443152552E0,-2.657932043E-1,-4.730102718E-1,-2.821283648E-3
1.445156927E0,-2.604669034E-1,-4.655534327E-1,-6.017073989E-3
1.447161302E0,-2.572711110E-1,-4.655534327E-1,2.505033975E-3
1.449165677E0,-2.540753484E-1,-4.570313096E-1,3.570297500E-3
1.451170052E0,-2.508795559E-1,-4.538355470E-1,6.766087376E-3
1.453174427E0,-2.487490177E-1,-4.517050087E-1,9.961877950E-3
1.455178802E0,-2.434227020E-1,-4.485092163E-1,1.209240500E-2
1.457183177E0,-2.455532253E-1,-4.517050087E-1,2.700609528E-2
1.459187552E0,-2.487490177E-1,-4.421176314E-1,4.511557892E-2
1.461191927E0,-2.551405728E-1,-4.325302541E-1,6.109452993E-2
1.463196302E0,-2.562058270E-1,-4.282692075E-1,7.387769222E-2
1.465200677E0,-2.615321577E-1,-4.218776226E-1,8.666084707E-2
1.467205052E0,-2.668584883E-1,-4.218776226E-1,9.837874770E-2
1.469209427E0,-2.711195350E-1,-4.229428768E-1,1.047703326E-1
1.471213802E0,-2.711195350E-1,-4.165513217E-1,1.111619100E-1
1.473218177E0,-2.753805816E-1,-4.144207835E-1,1.175534949E-1
1.475222552E0,-2.689889967E-1,-4.197471142E-1,1.196840182E-1
1.477226927E0,-2.732500434E-1,-4.144207835E-1,1.228798106E-1
1.479231302E0,-2.689889967E-1,-4.069639444E-1,1.260755956E-1
1.481235677E0,-2.732500434E-1,-4.080291986E-1,1.324671805E-1
1.483240052E0,-2.711195350E-1,-4.058986604E-1,1.345977038E-1
1.485244427E0,-2.711195350E-1,-4.069639444E-1,1.356629729E-1
1.487248802E0,-2.689889967E-1,-4.122902453E-1,1.303366572E-1
1.489253177E0,-2.721847892E-1,-4.154860377E-1,1.303366572E-1
1.491257552E0,-2.668584883E-1,-4.218776226E-1,1.314019263E-1
1.493261927E0,-2.657932043E-1,-4.272039533E-1,1.303366572E-1
1.495266302E0,-2.636626959E-1,-4.325302541E-1,1.271408647E-1
1.497270677E0,-2.647279501E-1,-4.399870932E-1,1.260755956E-1
1.499275052E0,-2.604669034E-1,-4.442481697E-1,1.196840182E-1
1.501279427E0,-2.636626959E-1,-4.335955381E-1,1.100966483E-1
1.503283802E0,-2.689889967E-1,-4.367913008E-1,1.122271717E-1
1.505288177E0,-2.689889967E-1,-4.346607924E-1,9.731348604E-2
1.507292552E0,-2.647279501E-1,-4.410523772E-1,9.518295527E-2
1.509296927E0,-2.604669034E-1,-4.453134239E-1,9.092190862E-2
1.511301302E0,-2.562058270E-1,-4.559660554E-1,8.026926965E-2
1.513305677E0,-2.530100644E-1,-4.634228945E-1,7.813873887E-2
1.515310052E0,-2.498142868E-1,-4.687492251E-1,7.387769222E-2
1.517314427E0,-2.466184944E-1,-4.836629033E-1,7.281242311E-2
1.519318802E0,-2.455532253E-1,-4.879239798E-1,6.855136901E-2
1.521323177E0,-2.444879711E-1,-4.985766113E-1,6.535558403E-2
1.523327552E0,-2.519448102E-1,-5.145555735E-1,5.576821044E-2
1.525331927E0,-2.551405728E-1,-5.134903193E-1,5.470294878E-2
1.527336302E0,-2.562058270E-1,-5.134903193E-1,5.150715634E-2
1.529340677E0,-2.647279501E-1,-5.156208873E-1,4.405031353E-2
1.531345052E0,-2.679237425E-1,-5.241429806E-1,3.765873238E-2
1.533349427E0,-2.721847892E-1,-5.337303281E-1,2.594083175E-2
1.535353802E0,-2.839026749E-1,-5.422524810E-1,1.635346003E-2
1.537358177E0,-2.839026749E-1,-5.816671848E-1,-1.240865607E-2
1.539362552E0,-2.998816371E-1,-6.210819483E-1,-4.330129549E-2
1.541366927E0,-3.094690144E-1,-6.562356353E-1,-6.780236214E-2
1.543371302E0,-3.254479766E-1,-6.796714664E-1,-9.443394840E-2
1.545375677E0,-3.446227014E-1,-7.009767294E-1,-1.136086881E-1
1.547380052E0,-3.595364094E-1,-7.137598991E-1,-1.359792203E-1
1.549384427E0,-3.819069266E-1,-7.286735773E-1,-1.551539749E-1
1.551388802E0,-3.989511430E-1,-7.425220013E-1,-1.700676531E-1
1.553393177E0,-4.138648510E-1,-7.553051710E-1,-1.839160919E-1
1.555397552E0,-4.277132750E-1,-7.766104341E-1,-1.956339777E-1
1.557401927E0,-4.436922073E-1,-7.947199345E-1,-2.020255625E-1
1.559406302E0,-4.543448389E-1,-8.138946891E-1,-2.030908316E-1
1.561410677E0,-4.660627544E-1,-8.394609690E-1,-2.084171474E-1
1.563415052E0,-4.735195935E-1,-8.639620543E-1,-2.052213550E-1
1.565419427E0,-4.841722250E-1,-8.852673173E-1,-2.041560858E-1
1.567423802E0,-4.937596023E-1,-9.065725803E-1,-1.956339777E-1
1.569428177E0,-5.012164712E-1,-9.278778434E-1,-1.913729310E-1
1.571432552E0,-5.044122934E-1,-9.481178522E-1,-1.839160919E-1
1.573436927E0,-5.118691325E-1,-9.704884291E-1,-1.764592379E-1
1.575441302E0,-5.139996409E-1,-9.832715392E-1,-1.721981913E-1
1.577445677E0,-5.171954036E-1,-9.992505312E-1,-1.626108140E-1
1.579450052E0,-5.235869884E-1,-1.009903073E0,-1.604802907E-1
1.581454427E0,-5.289133191E-1,-1.018425226E0,-1.562192291E-1
1.583458802E0,-5.278480649E-1,-1.023751497E0,-1.498276591E-1
1.585463177E0,-5.310438871E-1,-1.024816751E0,-1.466318667E-1
1.587467552E0,-5.289133191E-1,-1.029077768E0,-1.445013285E-1
1.589471927E0,-5.321091413E-1,-1.033338785E0,-1.359792203E-1
1.591476302E0,-5.310438871E-1,-1.034404039E0,-1.338486969E-1
1.593480677E0,-5.299785733E-1,-1.032273531E0,-1.317181736E-1
1.595485052E0,-5.278480649E-1,-1.026947260E0,-1.274571121E-1
1.597489427E0,-5.235869884E-1,-1.014164090E0,-1.274571121E-1
1.599493802E0,-5.171954036E-1,-1.009903073E0,-1.263918579E-1
1.601498177E0,-5.150648952E-1,-9.971199632E-1,-1.221307963E-1
1.603502552E0,-5.086733103E-1,-9.907283783E-1,-1.210655347E-1
1.605506927E0,-5.033469796E-1,-9.736841917E-1,-1.210655347E-1
1.607511302E0,-4.969553947E-1,-9.619662762E-1,-1.263918579E-1
1.609515677E0,-4.916290641E-1,-9.449220896E-1,-1.274571121E-1
1.611520052E0,-4.831069708E-1,-9.289430976E-1,-1.263918579E-1
1.613524427E0,-4.767153859E-1,-9.108336568E-1,-1.263918579E-1
1.615528802E0,-4.649975002E-1,-8.927241564E-1,-1.327834427E-1
1.617533177E0,-4.628669620E-1,-8.724841475E-1,-1.295876503E-1
1.619537552E0,-4.543448389E-1,-8.554399610E-1,-1.306529045E-1
1.621541927E0,-4.415616989E-1,-8.351999521E-1,-1.285223812E-1
1.623546302E0,-4.351701140E-1,-8.213515282E-1,-1.317181736E-1
1.625550677E0,-4.298437834E-1,-8.000462651E-1,-1.295876503E-1
1.627555052E0,-4.149301052E-1,-7.819367647E-1,-1.349139661E-1
1.629559427E0,-4.085385203E-1,-7.616967559E-1,-1.349139661E-1
1.631563802E0,-3.957553506E-1,-7.371956706E-1,-1.381097585E-1
1.633568177E0,-3.840374649E-1,-7.158904076E-1,-1.423708051E-1
1.635572552E0,-3.733848333E-1,-6.935198903E-1,-1.423708051E-1
1.637576927E0,-3.584711254E-1,-6.658230424E-1,-1.423708051E-1
1.639581302E0,-3.488837779E-1,-6.434525251E-1,-1.466318667E-1
1.641585677E0,-3.382311165E-1,-6.200166941E-1,-1.455665976E-1
1.643590052E0,-3.254479766E-1,-5.987114310E-1,-1.476971209E-1
1.645594427E0,-3.084037602E-1,-5.699493289E-1,-1.519581825E-1
1.647598802E0,-2.956205904E-1,-5.454482436E-1,-1.551539749E-1
1.649603177E0,-2.839026749E-1,-5.209472179E-1,-1.508929133E-1
1.651607552E0,-2.721847892E-1,-4.900544882E-1,-1.551539749E-1
1.653611927E0,-2.540753484E-1,-4.666186869E-1,-1.562192291E-1
1.655616302E0,-2.412921786E-1,-4.453134239E-1,-1.594150215E-1
1.657620677E0,-2.285090089E-1,-4.133555293E-1,-1.572844982E-1
1.659625052E0,-2.178563774E-1,-3.941807747E-1,-1.551539749E-1
1.661629427E0,-2.008121610E-1,-3.664839268E-1,-1.604802907E-1
1.663633802E0,-1.869637370E-1,-3.409175873E-1,-1.594150215E-1
1.665638177E0,-1.731153131E-1,-3.110902309E-1,-1.604802907E-1
1.667642552E0,-1.603321433E-1,-2.855238914E-1,-1.594150215E-1
1.669646927E0,-1.432879269E-1,-2.631533742E-1,-1.604802907E-1
1.671651302E0,-1.273089796E-1,-2.322607487E-1,-1.583497524E-1
1.673655677E0,-1.145258173E-1,-2.056291550E-1,-1.572844982E-1
1.675660052E0,-1.006773934E-1,-1.853891611E-1,-1.530234367E-1
1.677664427E0,-8.682896942E-2,-1.608880907E-1,-1.519581825E-1
1.679668802E0,-7.617633045E-2,-1.374522895E-1,-1.487623900E-1
1.681673177E0,-5.913211405E-2,-1.172122732E-1,-1.487623900E-1
1.683677552E0,-4.954474419E-2,-9.484174103E-2,-1.434360743E-1
1.685681927E0,-3.889210522E-2,-7.673226297E-2,-1.445013285E-1
1.687686302E0,-2.930473350E-2,-5.436172336E-2,-1.434360743E-1
1.689690677E0,-1.545630768E-2,-3.625224903E-2,-1.391750127E-1
1.691695052E0,-4.803672433E-3,-1.388171408E-2,-1.391750127E-1
1.693699427E0,2.653172240E-3,-1.098551787E-3,-1.327834427E-1
1.695703802E0,1.011001691E-2,1.488040108E-2,-1.370444894E-1
1.697708177E0,1.969738863E-2,3.085935861E-2,-1.370444894E-1
1.699712552E0,2.608896978E-2,4.470778257E-2,-1.306529045E-1
1.701716927E0,3.461107612E-2,5.855620652E-2,-1.317181736E-1
1.703721302E0,3.993739188E-2,6.707831472E-2,-1.210655347E-1
1.705725677E0,4.952476174E-2,7.027410716E-2,-1.200002730E-1
1.707730052E0,5.698160827E-2,8.092674613E-2,-1.125434265E-1
1.709734427E0,6.337319314E-2,9.157937765E-2,-1.114781648E-1
1.711738802E0,7.189530134E-2,9.264463931E-2,-1.029560566E-1
1.713743177E0,7.296056300E-2,1.086235940E-1,-9.869500250E-2
1.715747552E0,7.509108633E-2,1.171456948E-1,-1.008255333E-1
1.717751927E0,7.935214043E-2,1.299288571E-1,-9.656447172E-2
1.719756302E0,7.935214043E-2,1.309941113E-1,-9.017289430E-2
1.721760677E0,7.722161710E-2,1.416467428E-1,-9.336868674E-2
1.723765052E0,7.828687876E-2,1.501688510E-1,-8.804236352E-2
1.725769427E0,7.509108633E-2,1.565604359E-1,-8.804236352E-2
1.727773802E0,7.189530134E-2,1.661478132E-1,-1.050865799E-1
1.729778177E0,7.402582467E-2,1.789309680E-1,-1.317181736E-1
1.731782552E0,7.935214043E-2,1.917141378E-1,-1.508929133E-1
1.733786927E0,8.254793286E-2,1.959751844E-1,-1.700676531E-1
1.735791302E0,9.320056438E-2,2.002362460E-1,-1.753939688E-1
1.737795677E0,9.746162593E-2,1.938446611E-1,-1.807202995E-1
1.739800052E0,1.027879417E-1,1.863878220E-1,-1.775245070E-1
1.741804427E0,1.049184650E-1,1.799962372E-1,-1.700676531E-1
1.743808802E0,1.059837341E-1,1.661478132E-1,-1.636760831E-1
1.745813177E0,1.027879417E-1,1.597562283E-1,-1.583497524E-1
1.747817552E0,1.027879417E-1,1.491035968E-1,-1.455665976E-1
1.749821927E0,1.049184650E-1,1.395162195E-1,-1.391750127E-1
1.751826302E0,9.746162593E-2,1.320593804E-1,-1.306529045E-1
1.753830677E0,1.017226726E-1,1.299288571E-1,-1.200002730E-1
1.755835052E0,9.852688760E-2,1.224720106E-1,-1.114781648E-1
1.757839427E0,9.639635682E-2,1.182109639E-1,-9.762974083E-2
1.759843802E0,9.213530272E-2,1.107541174E-1,-8.804236352E-2
1.761848177E0,9.000477940E-2,1.022320092E-1,-8.058552444E-2
1.763852552E0,8.680898696E-2,9.903622419E-2,-6.886762381E-2
1.765856927E0,8.574372530E-2,9.690569341E-2,-6.567183137E-2
1.767861302E0,7.935214043E-2,8.731832355E-2,-5.395393074E-2
1.769865677E0,7.509108633E-2,7.879621536E-2,-4.862761125E-2
1.771870052E0,6.763423979E-2,6.920884550E-2,-4.436655715E-2
1.773874427E0,6.763423979E-2,6.707831472E-2,-3.264866397E-2
1.775878802E0,5.804686993E-2,5.642568320E-2,-2.732234448E-2
1.777883177E0,5.059003085E-2,4.790357500E-2,-2.306129038E-2
1.779887552E0,4.526370764E-2,3.298988193E-2,-1.773497276E-2
1.781891927E0,3.674159944E-2,2.233725041E-2,-4.951810464E-3
1.783896302E0,3.035002388E-2,1.488040108E-2,-6.907565985E-4
1.785900677E0,3.035002388E-2,4.227765836E-3,5.700823851E-3
1.787905052E0,1.756686158E-2,-7.490132935E-3,2.061451413E-2
1.789909427E0,1.330580749E-2,-1.920803264E-2,3.020188585E-2
1.791913802E0,9.044753388E-3,-3.518698364E-2,4.405031353E-2
1.793918177E0,5.226451904E-4,-3.838277608E-2,4.937663302E-2
1.795922552E0,-1.607881859E-3,-4.903540760E-2,5.896400288E-2
1.797926927E0,-2.673145384E-3,-5.542699248E-2,6.322505325E-2
1.799931302E0,-3.738408908E-3,-6.181856990E-2,7.174716145E-2
1.801935677E0,-4.803672433E-3,-6.927541643E-2,7.600821555E-2
1.803940052E0,-1.607881859E-3,-7.566699386E-2,8.133453131E-2
1.805944427E0,-7.999463007E-3,-7.886278629E-2,8.346506208E-2
1.807948802E0,-4.803672433E-3,-8.631963283E-2,8.879137784E-2
1.809953177E0,-2.673145384E-3,-8.845015615E-2,9.305243194E-2
1.811957552E0,-3.738408908E-3,-9.590700269E-2,1.015745401E-1
1.813961927E0,-1.119525358E-2,-9.803752601E-2,1.079661250E-1
1.815966302E0,-9.064726532E-3,-9.590700269E-2,1.154229641E-1
1.817970677E0,-1.012999006E-2,-9.590700269E-2,1.090313867E-1
1.819975052E0,-1.545630768E-2,-9.590700269E-2,1.186187565E-1
1.821979427E0,-1.332578063E-2,-9.697226435E-2,1.196840182E-1
1.823983802E0,-2.078262530E-2,-9.484174103E-2,1.196840182E-1
1.825988177E0,-2.078262530E-2,-9.377647936E-2,1.218145564E-1
1.827992552E0,-2.184788883E-2,-9.058068693E-2,1.196840182E-1
1.829996927E0,-1.332578063E-2,-9.377647936E-2,1.154229641E-1
1.832001302E0,-1.971736178E-2,-9.164594859E-2,1.154229641E-1
1.834005677E0,-1.332578063E-2,-9.377647936E-2,1.122271717E-1
1.836010052E0,-1.545630768E-2,-9.058068693E-2,1.079661250E-1
1.838014427E0,-1.545630768E-2,-9.377647936E-2,1.058355942E-1
1.840018802E0,-1.012999006E-2,-9.697226435E-2,1.090313867E-1
1.842023177E0,-1.012999006E-2,-1.022985876E-1,1.047703326E-1
1.844027552E0,-5.868935958E-3,-1.022985876E-1,1.005092785E-1
1.846031927E0,-1.332578063E-2,-1.054943725E-1,9.944401681E-2
1.848036302E0,-5.868935958E-3,-1.076249033E-1,9.731348604E-2
1.850040677E0,-1.332578063E-2,-1.118859574E-1,1.005092785E-1
1.852045052E0,-7.999463007E-3,-1.150817424E-1,9.944401681E-2
1.854049427E0,-1.119525358E-2,-1.236038506E-1,9.731348604E-2
1.856053802E0,-1.439104415E-2,-1.246691197E-1,1.015745401E-1
1.858058177E0,-1.226051711E-2,-1.299954355E-1,1.005092785E-1
1.860062552E0,-1.971736178E-2,-1.395828128E-1,1.026398018E-1
1.862066927E0,-2.078262530E-2,-1.459743977E-1,1.100966483E-1
1.864071302E0,-2.291315235E-2,-1.513007283E-1,1.122271717E-1
1.866075677E0,-3.036999702E-2,-1.587575674E-1,1.143577024E-1
1.868080052E0,-3.143525869E-2,-1.640838832E-1,1.228798106E-1
1.870084427E0,-3.995737433E-2,-1.704754680E-1,1.324671805E-1
1.872088802E0,-4.421842843E-2,-1.789975762E-1,1.367282420E-1
1.874093177E0,-5.167526752E-2,-1.864544153E-1,1.473808736E-1
1.876097552E0,-5.274053663E-2,-1.939112544E-1,1.516419202E-1
1.878101927E0,-6.019737571E-2,-2.003028393E-1,1.622945666E-1
1.880106302E0,-6.445842981E-2,-2.152165323E-1,1.697514057E-1
1.882110677E0,-6.445842981E-2,-2.226733714E-1,1.772082448E-1
1.884115052E0,-6.445842981E-2,-2.365218103E-1,1.846650988E-1
1.886119427E0,-6.339316815E-2,-2.429133803E-1,1.899914145E-1
1.888123802E0,-6.019737571E-2,-2.514354885E-1,1.910566688E-1
1.890128177E0,-6.339316815E-2,-2.588923275E-1,1.910566688E-1
1.892132552E0,-5.593632162E-2,-2.684796751E-1,1.899914145E-1
1.894136927E0,-5.380579829E-2,-2.706102133E-1,1.804040372E-1
1.896141302E0,-5.167526752E-2,-2.791323066E-1,1.825345755E-1
1.898145677E0,-4.634895176E-2,-2.791323066E-1,1.740124524E-1
1.900150052E0,-4.528369009E-2,-2.833933830E-1,1.697514057E-1
1.902154427E0,-3.889210522E-2,-2.844586372E-1,1.665556133E-1
1.904158802E0,-3.569631651E-2,-2.855238914E-1,1.633598208E-1
1.906163177E0,-3.889210522E-2,-2.865891457E-1,1.633598208E-1
1.908167552E0,-3.569631651E-2,-2.951112688E-1,1.590987742E-1
1.910171927E0,-3.889210522E-2,-3.015028536E-1,1.537724584E-1
1.912176302E0,-3.889210522E-2,-3.132207394E-1,1.527071893E-1
1.914180677E0,-4.634895176E-2,-3.174818158E-1,1.452503502E-1
1.916185052E0,-4.634895176E-2,-3.228081167E-1,1.431198120E-1
1.918189427E0,-5.806685239E-2,-3.345260024E-1,1.377934963E-1
1.920193802E0,-6.552369893E-2,-3.398523331E-1,1.314019263E-1
1.922198177E0,-7.191527635E-2,-3.494397104E-1,1.282061338E-1
1.924202552E0,-7.937212288E-2,-3.611575961E-1,1.239450797E-1
1.926206927E0,-9.215528518E-2,-3.718102276E-1,1.207492799E-1
1.928211302E0,-1.049384475E-1,-3.750060201E-1,1.079661250E-1
1.930215677E0,-1.209174022E-1,-3.835281432E-1,1.026398018E-1
1.932220052E0,-1.379616112E-1,-3.899197280E-1,9.092190862E-2
1.934224427E0,-1.582016200E-1,-3.952460289E-1,8.026926965E-2
1.936228802E0,-1.752458364E-1,-4.058986604E-1,6.855136901E-2
1.938233177E0,-1.944205761E-1,-4.101597369E-1,5.044189468E-2
1.940237552E0,-2.189216465E-1,-4.112249911E-1,3.339767829E-2
1.942241927E0,-2.370311320E-1,-4.101597369E-1,1.422293205E-2
1.944246302E0,-2.562058270E-1,-4.133555293E-1,-7.082337514E-3
1.946250677E0,-2.679237425E-1,-4.208123684E-1,-3.477918729E-2
1.948255052E0,-2.775111198E-1,-4.272039533E-1,-6.354130805E-2
1.950259427E0,-2.870984674E-1,-4.303997457E-1,-9.549921006E-2
1.952263802E0,-2.934900522E-1,-4.389218390E-1,-1.231960654E-1
1.954268177E0,-2.966858447E-1,-4.442481697E-1,-1.551539749E-1
1.956272552E0,-2.988163829E-1,-4.527702630E-1,-1.817855537E-1
1.958276927E0,-2.998816371E-1,-4.602271020E-1,-2.105476707E-1
1.960281302E0,-2.998816371E-1,-4.687492251E-1,-2.371792644E-1
1.962285677E0,-3.009469211E-1,-4.815323949E-1,-2.563540041E-1
1.964290052E0,-3.020121753E-1,-4.911197424E-1,-2.808550596E-1
1.966294427E0,-3.020121753E-1,-5.007071495E-1,-2.915076911E-1
1.968298802E0,-2.966858447E-1,-5.124250650E-1,-2.925729752E-1
1.970303177E0,-2.956205904E-1,-5.230777264E-1,-3.010950685E-1
1.972307552E0,-2.956205904E-1,-5.326650739E-1,-3.000298142E-1
1.974311927E0,-2.881637514E-1,-5.337303281E-1,-2.989645600E-1
1.976316302E0,-2.924247980E-1,-5.369261503E-1,-3.000298142E-1
1.978320677E0,-2.860332131E-1,-5.443829894E-1,-3.000298142E-1
1.980325052E0,-2.796416283E-1,-5.486440659E-1,-3.042908609E-1
1.982329427E0,-2.689889967E-1,-5.614272356E-1,-3.085519075E-1
1.984333802E0,-2.572711110E-1,-5.742103457E-1,-3.138782382E-1
1.986338177E0,-2.423574477E-1,-5.806019306E-1,-3.149434924E-1
1.988342552E0,-2.274437547E-1,-5.933851004E-1,-3.192045391E-1
1.990346927E0,-2.114647925E-1,-5.987114310E-1,-3.192045391E-1
1.992351302E0,-2.008121610E-1,-6.008419394E-1,-3.181392848E-1
1.994355677E0,-1.837679446E-1,-6.051030159E-1,-3.160087466E-1
1.996360052E0,-1.816374213E-1,-6.072335243E-1,-3.160087466E-1
1.998364427E0,-1.795068979E-1,-5.976461768E-1,-3.245308697E-1
2.000368802E0,-1.784416288E-1,-5.837977529E-1,-3.255961239E-1
2.002373177E0,-1.805721521E-1,-5.752756596E-1,-3.277266622E-1
2.004377552E0,-1.848332137E-1,-5.603619218E-1,-3.362487555E-1
2.006381927E0,-1.858984828E-1,-5.422524810E-1,-3.383792937E-1
2.008386302E0,-1.954858452E-1,-5.294693112E-1,-3.426403403E-1
2.010390677E0,-2.008121610E-1,-5.060334802E-1,-3.415750861E-1
2.012395052E0,-2.050732225E-1,-4.804671109E-1,-3.479666710E-1
2.014399427E0,-2.135953307E-1,-4.644881785E-1,-3.511624634E-1
2.016403802E0,-2.189216465E-1,-4.517050087E-1,-3.607498407E-1
2.018408177E0,-2.199869156E-1,-4.399870932E-1,-3.714024723E-1
2.020412552E0,-2.199869156E-1,-4.250734150E-1,-3.777940571E-1
2.022416927E0,-2.157258540E-1,-4.144207835E-1,-3.905771971E-1
2.024421302E0,-2.178563774E-1,-3.973765671E-1,-3.990993202E-1
2.026425677E0,-2.103995383E-1,-3.963113129E-1,-4.086866975E-1
2.028430052E0,-2.082690150E-1,-3.888544440E-1,-4.129477441E-1
2.030434427E0,-2.061384767E-1,-3.845933974E-1,-4.236003757E-1
2.032438802E0,-1.997469068E-1,-3.845933974E-1,-4.204045832E-1
2.034443177E0,-1.976163685E-1,-3.845933974E-1,-4.246656299E-1
2.036447552E0,-1.912247986E-1,-3.813976049E-1,-4.278614223E-1
2.038451927E0,-1.816374213E-1,-3.813976049E-1,-4.278614223E-1
2.040456302E0,-1.752458364E-1,-3.782018125E-1,-4.267961681E-1
2.042460677E0,-1.667237282E-1,-3.803323507E-1,-4.299919605E-1
2.044465052E0,-1.656584740E-1,-3.803323507E-1,-4.299919605E-1
2.046469427E0,-1.539405733E-1,-3.696797192E-1,-4.331877530E-1
2.048473802E0,-1.592668891E-1,-3.611575961E-1,-4.310572147E-1
2.050478177E0,-1.624626815E-1,-3.537007570E-1,-4.246656299E-1
2.052482552E0,-1.720500439E-1,-3.515702486E-1,-4.204045832E-1
2.054486927E0,-1.795068979E-1,-3.483744562E-1,-4.193393290E-1
2.056491302E0,-1.869637370E-1,-3.409175873E-1,-4.118824899E-1
2.058495677E0,-1.986816376E-1,-3.398523331E-1,-4.140129983E-1
2.060500052E0,-2.040079534E-1,-3.355912864E-1,-4.118824899E-1
2.062504427E0,-2.114647925E-1,-3.409175873E-1,-4.065561593E-1
2.064508802E0,-2.221174389E-1,-3.345260024E-1,-4.097519517E-1
2.066513177E0,-2.306395471E-1,-3.366565406E-1,-4.097519517E-1
2.068517552E0,-2.402269095E-1,-3.366565406E-1,-4.182740450E-1
2.070521927E0,-2.455532253E-1,-3.430481255E-1,-4.204045832E-1
2.072526302E0,-2.583363652E-1,-3.462439179E-1,-4.161435366E-1
2.074530677E0,-2.721847892E-1,-3.568965495E-1,-4.097519517E-1
2.076535052E0,-2.796416283E-1,-3.643533885E-1,-4.054909050E-1
2.078539427E0,-2.924247980E-1,-3.739407659E-1,-4.044256210E-1
2.080543802E0,-2.998816371E-1,-3.835281432E-1,-4.044256210E-1
2.082548177E0,-3.147953451E-1,-3.920502365E-1,-4.001645744E-1
2.084552552E0,-3.222521842E-1,-4.005723596E-1,-4.033603668E-1
2.086556927E0,-3.329048157E-1,-4.037681520E-1,-4.076214135E-1
2.088561302E0,-3.371658623E-1,-4.144207835E-1,-4.118824899E-1
2.090565677E0,-3.435574472E-1,-4.208123684E-1,-4.118824899E-1
2.092570052E0,-3.414269090E-1,-4.314649999E-1,-4.204045832E-1
2.094574427E0,-3.467532396E-1,-4.389218390E-1,-4.236003757E-1
2.096578802E0,-3.456879854E-1,-4.421176314E-1,-4.246656299E-1
2.098583177E0,-3.478184938E-1,-4.463786781E-1,-4.321224988E-1
2.100587552E0,-3.392964005E-1,-4.453134239E-1,-4.331877530E-1
2.102591927E0,-3.435574472E-1,-4.474439621E-1,-4.278614223E-1
2.104596302E0,-3.361006081E-1,-4.506397545E-1,-4.299919605E-1
2.106600677E0,-3.243826926E-1,-4.559660554E-1,-4.257309139E-1
2.108605052E0,-3.147953451E-1,-4.602271020E-1,-4.257309139E-1
2.110609427E0,-3.073384762E-1,-4.549008012E-1,-4.321224988E-1
2.112613802E0,-2.924247980E-1,-4.602271020E-1,-4.310572147E-1
2.114618177E0,-2.828374207E-1,-4.570313096E-1,-4.310572147E-1
2.116622552E0,-2.753805816E-1,-4.591618478E-1,-4.278614223E-1
2.118626927E0,-2.636626959E-1,-4.517050087E-1,-4.257309139E-1
2.120631302E0,-2.487490177E-1,-4.506397545E-1,-4.278614223E-1
2.122635677E0,-2.359658629E-1,-4.549008012E-1,-4.289267063E-1
2.124640052E0,-2.306395471E-1,-4.506397545E-1,-4.267961681E-1
2.126644427E0,-2.221174389E-1,-4.527702630E-1,-4.299919605E-1
2.128648802E0,-2.178563774E-1,-4.485092163E-1,-4.299919605E-1
2.130653177E0,-2.114647925E-1,-4.463786781E-1,-4.342530072E-1
2.132657552E0,-1.976163685E-1,-4.410523772E-1,-4.310572147E-1
2.134661927E0,-1.944205761E-1,-4.442481697E-1,-4.267961681E-1
2.136666302E0,-1.848332137E-1,-4.431828856E-1,-4.140129983E-1
2.138670677E0,-1.816374213E-1,-4.389218390E-1,-4.054909050E-1
2.140675052E0,-1.752458364E-1,-4.325302541E-1,-4.022951126E-1
2.142679427E0,-1.720500439E-1,-4.261386693E-1,-4.022951126E-1
2.144683802E0,-1.741805822E-1,-4.165513217E-1,-3.937729895E-1
2.146688177E0,-1.784416288E-1,-4.037681520E-1,-3.863161504E-1
2.148692552E0,-1.795068979E-1,-3.931155205E-1,-3.820551038E-1
2.150696927E0,-1.784416288E-1,-3.899197280E-1,-3.767287731E-1
2.152701302E0,-1.816374213E-1,-3.792670965E-1,-3.692719340E-1
2.154705677E0,-1.816374213E-1,-3.728755116E-1,-3.618150949E-1
2.156710052E0,-1.709847897E-1,-3.792670965E-1,-3.490319252E-1
2.158714427E0,-1.592668891E-1,-3.782018125E-1,-3.373140395E-1
2.160718802E0,-1.422226727E-1,-3.803323507E-1,-3.277266622E-1
2.162723177E0,-1.358310878E-1,-3.792670965E-1,-3.149434924E-1
2.164727552E0,-1.305047721E-1,-3.782018125E-1,-3.042908609E-1
2.166731927E0,-1.273089796E-1,-3.728755116E-1,-2.904424369E-1
2.168736302E0,-1.241131872E-1,-3.813976049E-1,-2.819203138E-1
2.170740677E0,-1.187868714E-1,-3.845933974E-1,-2.680718899E-1
2.172745052E0,-1.166563481E-1,-3.941807747E-1,-2.552887499E-1
2.174749427E0,-1.177216098E-1,-4.027028680E-1,-2.425055802E-1
2.176753802E0,-1.166563481E-1,-3.984418213E-1,-2.382445186E-1
2.178758177E0,-1.123952940E-1,-4.048334062E-1,-2.307876796E-1
2.180762552E0,-1.081342399E-1,-4.048334062E-1,-2.329182029E-1
2.182766927E0,-1.060037091E-1,-4.027028680E-1,-2.180045247E-1
2.184771302E0,-1.017426550E-1,-4.037681520E-1,-2.094824016E-1
2.186775677E0,-9.535107762E-2,-4.058986604E-1,-1.977645159E-1
2.188780052E0,-9.002475441E-2,-4.016376138E-1,-1.881771386E-1
2.190784427E0,-8.256791532E-2,-3.931155205E-1,-1.785897613E-1
2.192788802E0,-7.724159956E-2,-3.877891898E-1,-1.679371297E-1
2.194793177E0,-7.191527635E-2,-3.845933974E-1,-1.572844982E-1
2.196797552E0,-6.978475302E-2,-3.718102276E-1,-1.445013285E-1
2.198801927E0,-6.126264483E-2,-3.600923419E-1,-1.327834427E-1
2.200806302E0,-6.019737571E-2,-3.473091722E-1,-1.231960654E-1
2.202810677E0,-5.700159073E-2,-3.366565406E-1,-1.104129031E-1
2.204815052E0,-5.593632162E-2,-3.270691633E-1,-1.082823724E-1
2.206819427E0,-5.274053663E-2,-3.206775784E-1,-1.029560566E-1
2.208823802E0,-4.741421342E-2,-3.100249469E-1,-9.656447172E-2
2.210828177E0,-4.741421342E-2,-3.015028536E-1,-9.230342507E-2
2.212832552E0,-4.208789766E-2,-2.983070612E-1,-8.697710186E-2
2.214836927E0,-3.995737433E-2,-2.908502221E-1,-9.017289430E-2
2.216841302E0,-3.782684356E-2,-2.844586372E-1,-8.484657854E-2
2.218845677E0,-3.782684356E-2,-2.812628448E-1,-8.378131688E-2
2.220850052E0,-3.569631651E-2,-2.791323066E-1,-8.484657854E-2
2.222854427E0,-3.782684356E-2,-2.684796751E-1,-8.378131688E-2
2.224858802E0,-3.995737433E-2,-2.716754675E-1,-8.271604776E-2
2.226863177E0,-4.102263600E-2,-2.620880902E-1,-9.230342507E-2
2.228867552E0,-5.380579829E-2,-2.610228360E-1,-8.804236352E-2
2.230871927E0,-6.232790649E-2,-2.567617893E-1,-8.591184020E-2
2.232876302E0,-6.871949136E-2,-2.525007427E-1,-9.123815596E-2
2.234880677E0,-7.724159956E-2,-2.535660267E-1,-9.336868674E-2
2.236885052E0,-9.215528518E-2,-2.556965351E-1,-9.336868674E-2
2.238889427E0,-1.017426550E-1,-2.588923275E-1,-9.230342507E-2
2.240893802E0,-1.091995016E-1,-2.610228360E-1,-9.869500250E-2
2.242898177E0,-1.209174022E-1,-2.695449293E-1,-9.976026416E-2
2.244902552E0,-1.305047721E-1,-2.759365141E-1,-1.008255333E-1
2.246906927E0,-1.337005645E-1,-2.812628448E-1,-1.061518490E-1
2.248911302E0,-1.443531960E-1,-2.876544297E-1,-1.146739572E-1
2.250915677E0,-1.528753042E-1,-2.929807305E-1,-1.242613271E-1
2.252920052E0,-1.613974124E-1,-3.046986461E-1,-1.263918579E-1
2.254924427E0,-1.656584740E-1,-3.153512776E-1,-1.349139661E-1
2.256928802E0,-1.741805822E-1,-3.228081167E-1,-1.423708051E-1
2.258933177E0,-1.731153131E-1,-3.355912864E-1,-1.498276591E-1
2.260937552E0,-1.837679446E-1,-3.430481255E-1,-1.530234367E-1
2.262941927E0,-1.880290061E-1,-3.568965495E-1,-1.604802907E-1
2.264946302E0,-1.901595294E-1,-3.718102276E-1,-1.700676531E-1
2.266950677E0,-1.912247986E-1,-3.835281432E-1,-1.753939688E-1
2.268955052E0,-1.933553219E-1,-3.984418213E-1,-1.807202995E-1
2.270959427E0,-1.944205761E-1,-4.101597369E-1,-1.839160919E-1
2.272963802E0,-2.018774301E-1,-4.208123684E-1,-1.881771386E-1
2.274968177E0,-2.018774301E-1,-4.261386693E-1,-1.924381852E-1
2.276972552E0,-2.018774301E-1,-4.378565848E-1,-2.030908316E-1
2.278976927E0,-2.029426992E-1,-4.431828856E-1,-2.052213550E-1
2.280981302E0,-2.018774301E-1,-4.453134239E-1,-2.116129398E-1
2.282985677E0,-2.082690150E-1,-4.580965936E-1,-2.148087323E-1
2.284990052E0,-2.061384767E-1,-4.602271020E-1,-2.201350480E-1
2.286994427E0,-2.018774301E-1,-4.666186869E-1,-2.254613638E-1
2.288998802E0,-2.029426992E-1,-4.762060642E-1,-2.222655714E-1
2.291003177E0,-2.018774301E-1,-4.804671109E-1,-2.297224104E-1
2.293007552E0,-1.922900528E-1,-4.868586957E-1,-2.297224104E-1
2.295011927E0,-1.858984828E-1,-4.900544882E-1,-2.350487411E-1
2.297016302E0,-1.858984828E-1,-5.007071495E-1,-2.403750569E-1
2.299020677E0,-1.784416288E-1,-5.070987344E-1,-2.446361035E-1
2.301025052E0,-1.720500439E-1,-5.166861415E-1,-2.510276735E-1
2.303029427E0,-1.720500439E-1,-5.188166499E-1,-2.563540041E-1
2.305033802E0,-1.635279357E-1,-5.230777264E-1,-2.659413815E-1
2.307038177E0,-1.635279357E-1,-5.284040570E-1,-2.744634748E-1
2.309042552E0,-1.603321433E-1,-5.411872268E-1,-2.776592672E-1
2.311046927E0,-1.624626815E-1,-5.443829894E-1,-2.851161063E-1
2.313051302E0,-1.635279357E-1,-5.443829894E-1,-2.893771827E-1
2.315055677E0,-1.667237282E-1,-5.529050827E-1,-2.957687676E-1
2.317060052E0,-1.699195206E-1,-5.539703369E-1,-2.968340218E-1
2.319064427E0,-1.784416288E-1,-5.507745743E-1,-3.032256067E-1
2.321068802E0,-1.773763597E-1,-5.443829894E-1,-3.117477000E-1
2.323073177E0,-1.805721521E-1,-5.390566587E-1,-3.170740306E-1
2.325077552E0,-1.869637370E-1,-5.369261503E-1,-3.213350773E-1
2.327081927E0,-1.869637370E-1,-5.294693112E-1,-3.245308697E-1
2.329086302E0,-1.901595294E-1,-5.241429806E-1,-3.266614079E-1
2.331090677E0,-1.837679446E-1,-5.198819041E-1,-3.298572004E-1
2.333095052E0,-1.848332137E-1,-5.081639886E-1,-3.330529928E-1
2.335099427E0,-1.816374213E-1,-5.070987344E-1,-3.373140395E-1
2.337103802E0,-1.773763597E-1,-5.102944970E-1,-3.394445479E-1
2.339108177E0,-1.784416288E-1,-5.177513957E-1,-3.415750861E-1
2.341112552E0,-1.763111055E-1,-5.252082348E-1,-3.437056243E-1
2.343116927E0,-1.763111055E-1,-5.305345654E-1,-3.458361328E-1
2.345121302E0,-1.773763597E-1,-5.401219130E-1,-3.490319252E-1
2.347125677E0,-1.688542664E-1,-5.497093201E-1,-3.564887643E-1
2.349130052E0,-1.752458364E-1,-5.646229982E-1,-3.532929718E-1
2.351134427E0,-1.709847897E-1,-5.837977529E-1,-3.607498407E-1
2.353138802E0,-1.645932049E-1,-5.848630071E-1,-3.671414256E-1
2.355143177E0,-1.688542664E-1,-5.901893377E-1,-3.671414256E-1
2.357147552E0,-1.677889973E-1,-6.029725075E-1,-3.671414256E-1
2.359151927E0,-1.656584740E-1,-6.072335243E-1,-3.682066798E-1
2.361156302E0,-1.624626815E-1,-6.157556772E-1,-3.682066798E-1
2.363160677E0,-1.582016200E-1,-6.210819483E-1,-3.767287731E-1
2.365165052E0,-1.539405733E-1,-6.253430247E-1,-3.831203580E-1
2.367169427E0,-1.539405733E-1,-6.274735332E-1,-3.863161504E-1
2.369173802E0,-1.571363658E-1,-6.338651180E-1,-3.863161504E-1
2.371178177E0,-1.560710967E-1,-6.370609403E-1,-3.959035277E-1
2.373182552E0,-1.550058275E-1,-6.381261945E-1,-3.916424811E-1
2.375186927E0,-1.582016200E-1,-6.413219571E-1,-3.948382735E-1
2.377191302E0,-1.539405733E-1,-6.466482878E-1,-3.969687819E-1
2.379195677E0,-1.560710967E-1,-6.541051269E-1,-3.990993202E-1
2.381200052E0,-1.571363658E-1,-6.551703811E-1,-4.012298584E-1
2.383204427E0,-1.582016200E-1,-6.636925340E-1,-4.065561593E-1
2.385208802E0,-1.624626815E-1,-6.583662033E-1,-4.097519517E-1
2.387213177E0,-1.667237282E-1,-6.562356353E-1,-4.172087908E-1
2.389217552E0,-1.741805822E-1,-6.530398726E-1,-4.225351214E-1
2.391221927E0,-1.805721521E-1,-6.487787962E-1,-4.246656299E-1
2.393226302E0,-1.805721521E-1,-6.466482878E-1,-4.321224988E-1
2.395230677E0,-1.795068979E-1,-6.509093642E-1,-4.406445920E-1
2.397235052E0,-1.816374213E-1,-6.509093642E-1,-4.427751303E-1
2.399239427E0,-1.880290061E-1,-6.519746184E-1,-4.427751303E-1
2.401243802E0,-1.933553219E-1,-6.573009491E-1,-4.459709227E-1
2.403248177E0,-1.965511143E-1,-6.541051269E-1,-4.534277618E-1
2.405252552E0,-1.965511143E-1,-6.604967117E-1,-4.555582702E-1
2.407256927E0,-2.040079534E-1,-6.722146273E-1,-4.587540627E-1
2.409261302E0,-2.135953307E-1,-6.818019748E-1,-4.576888084E-1
2.411265677E0,-2.189216465E-1,-6.860630512E-1,-4.608846009E-1
2.413270052E0,-2.253132313E-1,-6.892588139E-1,-4.651456475E-1
2.415274427E0,-2.317048013E-1,-6.903240681E-1,-4.694067240E-1
2.417278802E0,-2.349005938E-1,-6.913893819E-1,-4.736677706E-1
2.419283177E0,-2.423574477E-1,-7.031072378E-1,-4.726024866E-1
2.421287552E0,-2.476837635E-1,-7.126946449E-1,-4.736677706E-1
2.423291927E0,-2.498142868E-1,-7.180209160E-1,-4.768635631E-1
2.425296302E0,-2.476837635E-1,-7.244125009E-1,-4.757982790E-1
2.427300677E0,-2.519448102E-1,-7.318693995E-1,-4.736677706E-1
2.429305052E0,-2.498142868E-1,-7.318693995E-1,-4.715372324E-1
2.431309427E0,-2.519448102E-1,-7.361304164E-1,-4.747330248E-1
2.433313802E0,-2.540753484E-1,-7.467830777E-1,-4.694067240E-1
2.435318177E0,-2.498142868E-1,-7.585009336E-1,-4.736677706E-1
2.437322552E0,-2.487490177E-1,-7.670230865E-1,-4.800593555E-1
2.439326927E0,-2.455532253E-1,-7.776756883E-1,-4.726024866E-1
2.441331302E0,-2.380963862E-1,-7.744799256E-1,-4.843204021E-1
2.443335677E0,-2.338353395E-1,-7.872630954E-1,-4.853856564E-1
2.445340052E0,-2.263784856E-1,-7.904588580E-1,-4.917772412E-1
2.447344427E0,-2.167911232E-1,-7.979156971E-1,-4.971035719E-1
2.449348802E0,-2.082690150E-1,-8.064377904E-1,-4.917772412E-1
2.451353177E0,-2.040079534E-1,-8.160251975E-1,-4.981688261E-1
2.453357552E0,-2.008121610E-1,-8.202862740E-1,-4.971035719E-1
2.455361927E0,-1.933553219E-1,-8.256125450E-1,-5.024299026E-1
2.457366302E0,-1.901595294E-1,-8.288083673E-1,-5.077561736E-1
2.459370677E0,-1.869637370E-1,-8.309388757E-1,-5.056256652E-1
2.461375052E0,-1.827026904E-1,-8.330693841E-1,-5.034951568E-1
2.463379427E0,-1.784416288E-1,-8.341346979E-1,-5.056256652E-1
2.465383802E0,-1.795068979E-1,-8.341346979E-1,-5.088214874E-1
2.467388177E0,-1.784416288E-1,-8.330693841E-1,-5.045604110E-1
2.469392552E0,-1.795068979E-1,-8.320041299E-1,-5.077561736E-1
2.471396927E0,-1.816374213E-1,-8.330693841E-1,-5.120172501E-1
2.473401302E0,-1.827026904E-1,-8.351999521E-1,-5.130825043E-1
2.475405677E0,-1.869637370E-1,-8.362652063E-1,-5.109519958E-1
2.477410052E0,-1.869637370E-1,-8.373304605E-1,-5.130825043E-1
2.479414427E0,-1.858984828E-1,-8.458525538E-1,-5.098867416E-1
2.481418802E0,-1.965511143E-1,-8.490483761E-1,-5.034951568E-1
2.483423177E0,-1.986816376E-1,-8.586357236E-1,-4.971035719E-1
2.485427552E0,-2.061384767E-1,-8.586357236E-1,-4.981688261E-1
2.487431927E0,-1.986816376E-1,-8.501136303E-1,-5.034951568E-1
2.489436302E0,-2.040079534E-1,-8.362652063E-1,-4.992340803E-1
2.491440677E0,-2.103995383E-1,-8.415915370E-1,-4.981688261E-1
2.493445052E0,-2.167911232E-1,-8.437220454E-1,-4.907119870E-1
2.495449427E0,-2.242479622E-1,-8.447872996E-1,-4.853856564E-1
2.497453802E0,-2.274437547E-1,-8.522441387E-1,-4.875161946E-1
2.499458177E0,-2.253132313E-1,-8.522441387E-1,-4.821898639E-1
2.501462552E0,-2.210521698E-1,-8.522441387E-1,-4.864509106E-1
2.503466927E0,-2.231826931E-1,-8.501136303E-1,-4.789940715E-1
2.505471302E0,-2.125300616E-1,-8.522441387E-1,-4.736677706E-1
2.507475677E0,-2.072037458E-1,-8.511788845E-1,-4.704719782E-1
2.509480052E0,-1.976163685E-1,-8.543746471E-1,-4.662109315E-1
2.511484427E0,-1.890942603E-1,-8.543746471E-1,-4.651456475E-1
2.513488802E0,-1.827026904E-1,-8.575704694E-1,-4.651456475E-1
2.515493177E0,-1.784416288E-1,-8.586357236E-1,-4.608846009E-1
2.517497552E0,-1.645932049E-1,-8.565052152E-1,-4.651456475E-1
2.519501927E0,-1.613974124E-1,-8.565052152E-1,-4.576888084E-1
2.521506302E0,-1.475489885E-1,-8.533093929E-1,-4.587540627E-1
2.523510677E0,-1.411574036E-1,-8.501136303E-1,-4.544930160E-1
2.525515052E0,-1.305047721E-1,-8.511788845E-1,-4.555582702E-1
2.527519427E0,-1.251784563E-1,-8.554399610E-1,-4.470361769E-1
2.529523802E0,-1.177216098E-1,-8.565052152E-1,-4.438403845E-1
2.531528177E0,-1.155910790E-1,-8.660925627E-1,-4.321224988E-1
2.533532552E0,-1.081342399E-1,-8.735494018E-1,-4.342530072E-1
2.535536927E0,-1.049384475E-1,-8.724841475E-1,-4.289267063E-1
2.537541302E0,-9.535107762E-2,-8.692883849E-1,-4.182740450E-1
2.539545677E0,-9.535107762E-2,-8.660925627E-1,-4.150782824E-1
2.541550052E0,-9.428581595E-2,-8.650273085E-1,-4.054909050E-1
2.543554427E0,-8.363317698E-2,-8.682231307E-1,-4.065561593E-1
2.545558802E0,-8.150264621E-2,-8.554399610E-1,-4.012298584E-1
2.547563177E0,-7.937212288E-2,-8.469178081E-1,-3.927077353E-1
2.549567552E0,-8.043738455E-2,-8.458525538E-1,-3.863161504E-1
2.551571927E0,-7.617633045E-2,-8.341346979E-1,-3.863161504E-1
2.553576302E0,-7.617633045E-2,-8.256125450E-1,-3.777940571E-1
2.555580677E0,-7.298053801E-2,-8.202862740E-1,-3.692719340E-1
2.557585052E0,-7.404580712E-2,-8.106988668E-1,-3.724677265E-1
2.559589427E0,-7.511106879E-2,-8.075031042E-1,-3.618150949E-1
2.561593802E0,-7.298053801E-2,-8.021767735E-1,-3.596845567E-1
2.563598177E0,-8.682896942E-2,-7.947199345E-1,-3.511624634E-1
2.565602552E0,-9.535107762E-2,-7.925893664E-1,-3.532929718E-1
2.567606927E0,-1.006773934E-1,-7.883283496E-1,-3.469014168E-1
2.569611302E0,-1.049384475E-1,-7.830020189E-1,-3.415750861E-1
2.571615677E0,-1.155910790E-1,-7.723493576E-1,-3.362487555E-1
2.573620052E0,-1.209174022E-1,-7.691535950E-1,-3.341182470E-1
2.575624427E0,-1.273089796E-1,-7.680883408E-1,-3.224003315E-1
2.577628802E0,-1.251784563E-1,-7.585009336E-1,-3.192045391E-1
2.579633177E0,-1.209174022E-1,-7.563704252E-1,-3.128129840E-1
2.581637552E0,-1.230479255E-1,-7.616967559E-1,-3.085519075E-1
2.583641927E0,-1.155910790E-1,-7.574356794E-1,-3.064213991E-1
2.585646302E0,-1.134605557E-1,-7.553051710E-1,-2.968340218E-1
2.587650677E0,-9.854686260E-2,-7.489135861E-1,-3.021603227E-1
2.589655052E0,-9.748160094E-2,-7.499788404E-1,-2.904424369E-1
2.591659427E0,-8.682896942E-2,-7.414567471E-1,-3.000298142E-1
2.593663802E0,-8.150264621E-2,-7.339999080E-1,-2.915076911E-1
2.595668177E0,-7.724159956E-2,-7.244125009E-1,-2.925729752E-1
2.597672552E0,-7.511106879E-2,-7.190862298E-1,-2.978992760E-1
2.599676927E0,-6.871949136E-2,-7.105640769E-1,-3.021603227E-1
2.601681302E0,-6.339316815E-2,-6.967156529E-1,-3.032256067E-1
2.603685677E0,-6.019737571E-2,-6.903240681E-1,-3.042908609E-1
2.605690052E0,-5.700159073E-2,-6.849977970E-1,-3.096171916E-1
2.607694427E0,-4.847948253E-2,-6.711493731E-1,-3.170740306E-1
2.609698802E0,-4.102263600E-2,-6.636925340E-1,-3.266614079E-1
2.611703177E0,-3.782684356E-2,-6.562356353E-1,-3.245308697E-1
2.613707552E0,-2.717420645E-2,-6.434525251E-1,-3.330529928E-1
2.615711927E0,-2.078262530E-2,-6.391914487E-1,-3.351835012E-1
2.617716302E0,-1.971736178E-2,-6.349303722E-1,-3.383792937E-1
2.619720677E0,-1.545630768E-2,-6.327998638E-1,-3.362487555E-1
2.621725052E0,-1.439104415E-2,-6.296041012E-1,-3.405098319E-1
2.623729427E0,-1.012999006E-2,-6.178861856E-1,-3.500971794E-1
2.625733802E0,-9.064726532E-3,-6.082987785E-1,-3.564887643E-1
2.627738177E0,-1.652157120E-2,-6.082987785E-1,-3.554235101E-1
2.629742552E0,-1.439104415E-2,-6.082987785E-1,-3.650108874E-1
2.631746927E0,-1.545630768E-2,-6.029725075E-1,-3.650108874E-1
2.633751302E0,-1.545630768E-2,-5.976461768E-1,-3.682066798E-1
2.635755677E0,-2.397841588E-2,-5.901893377E-1,-3.735329807E-1
2.637760052E0,-2.397841588E-2,-5.944503546E-1,-3.735329807E-1
2.639764427E0,-2.610894293E-2,-5.987114310E-1,-3.852508962E-1
2.641768802E0,-2.291315235E-2,-6.051030159E-1,-3.895119429E-1
2.643773177E0,-2.397841588E-2,-6.051030159E-1,-3.937729895E-1
2.645777552E0,-2.717420645E-2,-6.019071937E-1,-3.959035277E-1
2.647781927E0,-2.184788883E-2,-5.987114310E-1,-3.937729895E-1
2.649786302E0,-1.758683473E-2,-6.040377617E-1,-3.884466887E-1
2.651790677E0,-9.064726532E-3,-6.104293466E-1,-3.916424811E-1
2.653795052E0,5.226451904E-4,-6.146903634E-1,-3.852508962E-1
2.655799427E0,1.011001691E-2,-6.104293466E-1,-3.863161504E-1
2.657803802E0,2.076265216E-2,-6.061682701E-1,-3.905771971E-1
2.659808177E0,3.035002388E-2,-5.987114310E-1,-3.895119429E-1
2.661812552E0,3.567633778E-2,-5.997766852E-1,-3.831203580E-1
2.663816927E0,3.993739188E-2,-5.965809226E-1,-3.863161504E-1
2.665821302E0,4.739423841E-2,-5.976461768E-1,-3.884466887E-1
2.667825677E0,5.165529251E-2,-6.072335243E-1,-3.852508962E-1
2.669830052E0,5.698160827E-2,-6.029725075E-1,-3.916424811E-1
2.671834427E0,6.337319314E-2,-5.965809226E-1,-3.959035277E-1
2.673838802E0,6.976477057E-2,-5.933851004E-1,-4.022951126E-1
2.675843177E0,7.828687876E-2,-5.880587697E-1,-4.022951126E-1
2.677847552E0,8.574372530E-2,-5.816671848E-1,-4.086866975E-1
2.679851927E0,9.426583350E-2,-5.806019306E-1,-4.140129983E-1
2.681856302E0,1.059837341E-1,-5.784714222E-1,-4.172087908E-1
2.683860677E0,1.134405732E-1,-5.752756596E-1,-4.182740450E-1
2.685865052E0,1.240932047E-1,-5.646229982E-1,-4.267961681E-1
2.687869427E0,1.411374211E-1,-5.678187609E-1,-4.321224988E-1
2.689873802E0,1.528553218E-1,-5.582314134E-1,-4.342530072E-1
2.691878177E0,1.624426991E-1,-5.592966676E-1,-4.321224988E-1
2.693882552E0,1.773563921E-1,-5.486440659E-1,-4.417098463E-1
2.695886927E0,1.869437546E-1,-5.497093201E-1,-4.470361769E-1
2.697891302E0,2.029227167E-1,-5.465134978E-1,-4.534277618E-1
2.699895677E0,2.146406174E-1,-5.379914045E-1,-4.576888084E-1
2.701900052E0,2.274237722E-1,-5.315998197E-1,-4.598193467E-1
2.703904427E0,2.380764037E-1,-5.369261503E-1,-4.694067240E-1
2.705908802E0,2.561859190E-1,-5.294693112E-1,-4.704719782E-1
2.707913177E0,2.679038048E-1,-5.337303281E-1,-4.704719782E-1
2.709917552E0,2.742953897E-1,-5.401219130E-1,-4.640803933E-1
2.711921927E0,2.902743518E-1,-5.454482436E-1,-4.630151391E-1
2.713926302E0,3.009269834E-1,-5.433177352E-1,-4.662109315E-1
2.715930677E0,3.094491065E-1,-5.507745743E-1,-4.598193467E-1
2.717935052E0,3.137101531E-1,-5.656882524E-1,-4.555582702E-1
2.719939427E0,3.147754073E-1,-5.763409138E-1,-4.576888084E-1
2.721943802E0,3.201017380E-1,-5.752756596E-1,-4.523624778E-1
2.723948177E0,3.179711998E-1,-5.806019306E-1,-4.512972236E-1
2.725952552E0,3.158406615E-1,-5.859282613E-1,-4.449056387E-1
2.727956927E0,3.179711998E-1,-6.019071937E-1,-4.470361769E-1
2.729961302E0,3.222322464E-1,-6.125598550E-1,-4.502319694E-1
2.731965677E0,3.232975304E-1,-6.210819483E-1,-4.555582702E-1
2.733970052E0,3.243627846E-1,-6.317346096E-1,-4.481014311E-1
2.735974427E0,3.264933228E-1,-6.306693554E-1,-4.502319694E-1
2.737978802E0,3.307543695E-1,-6.381261945E-1,-4.555582702E-1
2.739983177E0,3.307543695E-1,-6.445177794E-1,-4.502319694E-1
2.741987552E0,3.307543695E-1,-6.573009491E-1,-4.491667151E-1
2.743991927E0,3.328848779E-1,-6.668882966E-1,-4.438403845E-1
2.745996302E0,3.307543695E-1,-6.796714664E-1,-4.566235542E-1
2.748000677E0,3.307543695E-1,-6.754103899E-1,-4.587540627E-1
2.750005052E0,3.264933228E-1,-6.828672290E-1,-4.534277618E-1
2.752009427E0,3.201017380E-1,-6.945851445E-1,-4.566235542E-1
2.754013802E0,3.211669922E-1,-6.977809668E-1,-4.619498551E-1
2.756018177E0,3.190364540E-1,-7.073683143E-1,-4.672761858E-1
2.758022552E0,3.147754073E-1,-7.116293907E-1,-4.715372324E-1
2.760026927E0,3.169059455E-1,-7.094988227E-1,-4.821898639E-1
2.762031302E0,3.179711998E-1,-7.169556618E-1,-4.821898639E-1
2.764035677E0,3.243627846E-1,-7.244125009E-1,-4.907119870E-1
2.766040052E0,3.232975304E-1,-7.308040857E-1,-4.907119870E-1
2.768044427E0,3.286238313E-1,-7.425220013E-1,-5.034951568E-1
2.770048802E0,3.275585771E-1,-7.414567471E-1,-5.098867416E-1
2.772053177E0,3.264933228E-1,-7.467830777E-1,-5.120172501E-1
2.774057552E0,3.286238313E-1,-7.435872555E-1,-5.173435807E-1
2.776061927E0,3.275585771E-1,-7.318693995E-1,-5.152130127E-1
2.778066302E0,3.318196237E-1,-7.222819924E-1,-5.205393434E-1
2.780070677E0,3.296891153E-1,-7.137598991E-1,-5.173435807E-1
2.782075052E0,3.275585771E-1,-7.073683143E-1,-5.184088349E-1
2.784079427E0,3.339501619E-1,-6.999114752E-1,-5.173435807E-1
2.786083802E0,3.371459544E-1,-6.849977970E-1,-5.205393434E-1
2.788088177E0,3.371459544E-1,-6.775409579E-1,-5.109519958E-1
2.790092552E0,3.392764628E-1,-6.647577882E-1,-5.024299026E-1
2.792096927E0,3.371459544E-1,-6.615619659E-1,-4.853856564E-1
2.794101302E0,3.371459544E-1,-6.573009491E-1,-4.651456475E-1
2.796105677E0,3.360806704E-1,-6.487787962E-1,-4.481014311E-1
2.798110052E0,3.328848779E-1,-6.253430247E-1,-4.236003757E-1
2.800114427E0,3.360806704E-1,-6.029725075E-1,-4.022951126E-1
2.802118802E0,3.307543695E-1,-5.933851004E-1,-3.735329807E-1
2.804123177E0,3.403417468E-1,-5.837977529E-1,-3.362487555E-1
2.806127552E0,3.424722552E-1,-5.720798373E-1,-3.096171916E-1
2.808131927E0,3.552554250E-1,-5.624924898E-1,-2.872466445E-1
2.810136302E0,3.563206792E-1,-5.582314134E-1,-2.520929575E-1
2.812140677E0,3.680385947E-1,-5.507745743E-1,-2.243960947E-1
2.814145052E0,3.722996414E-1,-5.411872268E-1,-1.935034543E-1
2.816149427E0,3.850828111E-1,-5.262734890E-1,-1.668718755E-1
2.818153802E0,3.882786036E-1,-5.113598108E-1,-1.402402818E-1
2.820158177E0,3.946701884E-1,-5.017724037E-1,-1.189350113E-1
2.822162552E0,3.978659809E-1,-4.996418655E-1,-9.762974083E-2
2.824166927E0,3.999964893E-1,-4.847281873E-1,-7.525920868E-2
2.826171302E0,3.957354426E-1,-4.783366024E-1,-5.928025022E-2
2.828175677E0,3.936049044E-1,-4.644881785E-1,-4.436655715E-2
2.830180052E0,3.893438578E-1,-4.517050087E-1,-3.158339858E-2
2.832184427E0,3.893438578E-1,-4.389218390E-1,-1.666970924E-2
2.834188802E0,3.818870187E-1,-4.208123684E-1,-1.240865607E-2
2.836193177E0,3.776259720E-1,-3.995071054E-1,-3.886547172E-3
2.838197552E0,3.659080565E-1,-3.803323507E-1,1.439770451E-3
2.840201927E0,3.563206792E-1,-3.632881343E-1,2.505033975E-3
2.842206302E0,3.446027935E-1,-3.334607482E-1,3.570297500E-3
2.844210677E0,3.350154161E-1,-3.078944385E-1,1.439770451E-3
2.846215052E0,3.254280388E-1,-2.876544297E-1,-4.951810464E-3
2.848219427E0,3.169059455E-1,-2.674144208E-1,-8.147601038E-3
2.850223802E0,3.062533140E-1,-2.471744418E-1,-1.666970924E-2
2.852228177E0,3.019922376E-1,-2.269344330E-1,-2.306129038E-2
2.854232552E0,2.966659367E-1,-2.056291550E-1,-2.732234448E-2
2.856236927E0,2.870785594E-1,-1.949765235E-1,-3.158339858E-2
2.858241302E0,2.796217203E-1,-1.789975762E-1,-3.904024139E-2
2.860245677E0,2.732301354E-1,-1.683449447E-1,-4.010550305E-2
2.862250052E0,2.710995972E-1,-1.544965059E-1,-4.543182254E-2
2.864254427E0,2.583164573E-1,-1.342564970E-1,-4.756234959E-2
2.866258802E0,2.519248724E-1,-1.182775348E-1,-5.075814202E-2
2.868263177E0,2.359458804E-1,-1.086901650E-1,-4.543182254E-2
2.870267552E0,2.295542955E-1,-8.631963283E-2,-4.330129549E-2
2.872271927E0,2.157058716E-1,-6.714488566E-2,-3.797497973E-2
2.874276302E0,2.050532401E-1,-4.583961889E-2,-3.584444895E-2
2.876280677E0,2.018574476E-1,-2.240382135E-2,-3.158339858E-2
2.878285052E0,1.986616552E-1,3.162502311E-3,-2.625708096E-2
2.880289427E0,1.933353394E-1,2.766356617E-2,-1.773497276E-2
2.882293802E0,1.901395470E-1,5.322989076E-2,-1.240865607E-2
2.884298177E0,1.965311319E-1,7.773095369E-2,1.439770451E-3
2.886302552E0,1.965311319E-1,9.264463931E-2,1.102714147E-2
2.888306927E0,2.039879709E-1,1.118193865E-1,2.274504118E-2
2.890311302E0,2.007921785E-1,1.235372797E-1,3.978925943E-2
2.892315677E0,2.061184943E-1,1.416467428E-1,5.150715634E-2
2.894320052E0,2.157058716E-1,1.512341201E-1,6.429031491E-2
2.896324427E0,2.189016640E-1,1.597562283E-1,7.600821555E-2
2.898328802E0,2.274237722E-1,1.629520208E-1,8.772611618E-2
2.900333177E0,2.380764037E-1,1.725393832E-1,9.624822438E-2
2.902337552E0,2.465985268E-1,1.778657138E-1,1.079661250E-1
2.904341927E0,2.519248724E-1,1.917141378E-1,1.132924408E-1
2.906346302E0,2.615122497E-1,1.938446611E-1,1.207492799E-1
2.908350677E0,2.710995972E-1,2.087583542E-1,1.207492799E-1
2.910355052E0,2.753606737E-1,2.162151933E-1,1.186187565E-1
2.912359427E0,2.817522287E-1,2.300636172E-1,1.175534949E-1
2.914363802E0,2.924048901E-1,2.396510094E-1,1.132924408E-1
2.916368177E0,2.966659367E-1,2.460425943E-1,1.026398018E-1
2.918372552E0,2.998617291E-1,2.545647025E-1,9.731348604E-2
2.920376927E0,3.062533140E-1,2.577604949E-1,9.198717028E-2
2.922381302E0,3.094491065E-1,2.598910332E-1,8.666084707E-2
2.924385677E0,3.115796149E-1,2.566952407E-1,7.494295388E-2
2.926390052E0,3.169059455E-1,2.524341941E-1,6.642084569E-2
2.928394427E0,3.190364540E-1,2.439120561E-1,6.322505325E-2
2.930398802E0,3.232975304E-1,2.279330939E-1,5.683347583E-2
2.932403177E0,3.243627846E-1,2.172804624E-1,5.683347583E-2
2.934407552E0,3.328848779E-1,2.066278160E-1,5.683347583E-2
2.936411927E0,3.360806704E-1,1.895835996E-1,5.683347583E-2
2.938416302E0,3.382112086E-1,1.693436056E-1,5.470294878E-2
2.940420677E0,3.371459544E-1,1.565604359E-1,5.150715634E-2
2.942425052E0,3.360806704E-1,1.384509504E-1,6.322505325E-2
2.944429427E0,3.382112086E-1,1.224720106E-1,6.961663067E-2
2.946433802E0,3.350154161E-1,1.043625399E-1,7.707347721E-2
2.948438177E0,3.339501619E-1,7.879621536E-2,9.411769360E-2
2.950442552E0,3.318196237E-1,6.601305306E-2,1.079661250E-1
2.952446927E0,3.350154161E-1,4.151199013E-2,1.260755956E-1
2.954451302E0,3.350154161E-1,2.340251207E-2,1.484461427E-1
2.956455677E0,3.339501619E-1,2.097238787E-3,1.622945666E-1
2.958460052E0,3.371459544E-1,-1.494697761E-2,1.825345755E-1
2.960464427E0,3.392764628E-1,-2.986066788E-2,2.059703618E-1
2.962468802E0,3.424722552E-1,-4.477435350E-2,2.336672246E-1
2.964473177E0,3.446027935E-1,-5.968804657E-2,2.560377419E-1
2.966477552E0,3.435375392E-1,-6.714488566E-2,2.752124965E-1
2.968481927E0,3.467333019E-1,-7.460173219E-2,2.986482978E-1
2.970486302E0,3.403417468E-1,-7.460173219E-2,3.252798915E-1
2.972490677E0,3.382112086E-1,-7.353647053E-2,3.412588239E-1
2.974495052E0,3.307543695E-1,-7.673226297E-2,3.604335785E-1
2.976499427E0,3.232975304E-1,-7.353647053E-2,3.838693798E-1
2.978503802E0,3.147754073E-1,-7.034067810E-2,4.009135962E-1
2.980508177E0,3.041227758E-1,-7.034067810E-2,4.211536050E-1
2.982512552E0,2.956006825E-1,-5.755751580E-2,4.371325374E-1
2.984516927E0,2.870785594E-1,-4.583961889E-2,4.413936138E-1
2.986521302E0,2.796217203E-1,-4.264383018E-2,4.520462453E-1
2.988525677E0,2.732301354E-1,-3.838277608E-2,4.765473008E-1
2.990530052E0,2.679038048E-1,-2.453434840E-2,4.999831021E-1
2.992534427E0,2.689690888E-1,-1.920803264E-2,5.159620643E-1
2.994538802E0,2.647080123E-1,-1.388171408E-2,5.362020731E-1
2.996543177E0,2.647080123E-1,-1.068592351E-2,5.393978357E-1
2.998547552E0,2.647080123E-1,-7.490132935E-3,5.511157513E-1
3.000551927E0,2.604469657E-1,-3.229078837E-3,5.585725904E-1
3.002556302E0,2.604469657E-1,-6.424869411E-3,5.575073361E-1
3.004560677E0,2.604469657E-1,-4.294342361E-3,5.575073361E-1
3.006565052E0,2.636427581E-1,5.293029360E-3,5.628336668E-1
3.008569427E0,2.572511733E-1,1.274987403E-2,5.713557601E-1
3.010573802E0,2.572511733E-1,1.701092720E-2,5.788125992E-1
3.012578177E0,2.487290651E-1,2.446777374E-2,5.756168365E-1
3.014582552E0,2.455332726E-1,2.659830451E-2,5.724210143E-1
3.016586927E0,2.338153571E-1,2.766356617E-2,5.756168365E-1
3.018591302E0,2.231627107E-1,3.725093603E-2,5.883999467E-1
3.020595677E0,2.135753483E-1,4.577304423E-2,5.894652605E-1
3.022600052E0,1.954658628E-1,5.536042154E-2,5.937262774E-1
3.024604427E0,1.869437546E-1,6.068673730E-2,5.958568454E-1
3.026608802E0,1.698995382E-1,7.453516126E-2,6.075747013E-1
3.028613177E0,1.624426991E-1,8.199200779E-2,6.171621084E-1
3.030617552E0,1.453984827E-1,8.838358521E-2,6.267494559E-1
3.032621927E0,1.358111054E-1,9.477517009E-2,6.363368034E-1
3.034626302E0,1.187668890E-1,9.690569341E-2,6.555115581E-1
3.036630677E0,1.081142575E-1,9.264463931E-2,6.672294736E-1
3.038635052E0,9.852688760E-2,9.370990098E-2,6.800126433E-1
3.040639427E0,9.107004106E-2,7.773095369E-2,6.991873980E-1
3.042643802E0,8.467845619E-2,6.601305306E-2,7.151663303E-1
3.044648177E0,7.828687876E-2,4.470778257E-2,7.300800085E-1
3.046652552E0,7.935214043E-2,2.020671591E-2,7.439284325E-1
3.048656927E0,7.722161710E-2,-2.133855969E-2,7.652336955E-1
3.050661302E0,7.296056300E-2,-6.927541643E-2,7.854737043E-1
3.052665677E0,7.509108633E-2,-1.193428040E-1,8.057137132E-1
3.054670052E0,7.935214043E-2,-1.726059914E-1,8.216927052E-1
3.056674427E0,8.148267120E-2,-2.354565412E-1,8.461937308E-1
3.058678802E0,8.148267120E-2,-3.089596927E-1,8.685643077E-1
3.060683177E0,8.361319453E-2,-3.792670965E-1,8.898695707E-1
3.062687552E0,8.467845619E-2,-4.538355470E-1,9.154358506E-1
3.064691927E0,8.041740954E-2,-5.284040570E-1,9.441980124E-1
3.066696302E0,8.361319453E-2,-6.093640924E-1,9.708295465E-1
3.068700677E0,7.935214043E-2,-6.913893819E-1,9.942653775E-1
3.070705052E0,7.935214043E-2,-7.659578323E-1,1.017701268E0
3.072709427E0,7.615634799E-2,-8.554399610E-1,1.047528625E0
3.074713802E0,6.976477057E-2,-9.310736656E-1,1.074160218E0
3.076718177E0,6.656897813E-2,-1.003511548E0,1.103987575E0
3.078722552E0,6.230792403E-2,-1.073818803E0,1.130619168E0
3.080726927E0,6.017740071E-2,-1.139865160E0,1.160446525E0
3.082731302E0,5.591634661E-2,-1.199519992E0,1.187078118E0
3.084735677E0,5.165529251E-2,-1.253848433E0,1.206252933E0
3.086740052E0,4.419844598E-2,-1.298589468E0,1.220101357E0
3.088744427E0,3.354581445E-2,-1.334808350E0,1.227558136E0
3.090748802E0,2.608896978E-2,-1.362505317E0,1.229688644E0
3.092753177E0,1.650159806E-2,-1.383810520E0,1.228623390E0
3.094757552E0,1.011001691E-2,-1.405115843E0,1.228623390E0
3.096761927E0,5.226451904E-4,-1.421094775E0,1.226492882E0
3.098766302E0,-1.012999006E-2,-1.431747437E0,1.231819153E0
3.100770677E0,-2.397841588E-2,-1.432812691E0,1.227558136E0
3.102775052E0,-3.676158190E-2,-1.432812691E0,1.215840220E0
3.104779427E0,-5.274053663E-2,-1.423225284E0,1.211579204E0
3.106783802E0,-6.339316815E-2,-1.412572622E0,1.204122305E0
3.108788177E0,-8.150264621E-2,-1.397658944E0,1.199861288E0
3.110792552E0,-9.322054684E-2,-1.378484249E0,1.189208627E0
3.112796927E0,-1.081342399E-1,-1.348656893E0,1.186012864E0
3.114801302E0,-1.209174022E-1,-1.322025299E0,1.174294949E0
3.116805677E0,-1.379616112E-1,-1.280479908E0,1.160446525E0
3.118810052E0,-1.475489885E-1,-1.243195772E0,1.148728609E0
3.120814427E0,-1.582016200E-1,-1.199519992E0,1.129553914E0
3.122818802E0,-1.699195206E-1,-1.156909347E0,1.117835999E0
3.124823177E0,-1.827026904E-1,-1.113233566E0,1.103987575E0
3.126827552E0,-1.880290061E-1,-1.059970379E0,1.079486489E0
3.128831927E0,-1.944205761E-1,-1.016294599E0,1.053920150E0
3.130836302E0,-1.997469068E-1,-9.651620984E-1,1.021962285E0
3.132840677E0,-2.018774301E-1,-9.118989110E-1,9.900043011E-1
3.134845052E0,-2.072037458E-1,-8.628968000E-1,9.601769447E-1
3.136849427E0,-2.072037458E-1,-8.160251975E-1,9.271537662E-1
3.138853802E0,-2.146605849E-1,-7.680883408E-1,8.920000792E-1
3.140858177E0,-2.199869156E-1,-7.254778147E-1,8.525853157E-1
3.142862552E0,-2.210521698E-1,-6.807367206E-1,8.153011203E-1
3.144866927E0,-2.221174389E-1,-6.317346096E-1,7.641684413E-1
3.146867865E0,-2.146605849E-1,-5.901893377E-1,7.162315845E-1
3.148868802E0,-2.157258540E-1,-5.454482436E-1,6.597726345E-1
3.150870157E0,-2.082690150E-1,-5.134903193E-1,5.894652605E-1
3.152872032E0,-2.029426992E-1,-4.772713184E-1,5.074399710E-1
3.154874532E0,-1.922900528E-1,-4.293344617E-1,4.211536050E-1
3.156877657E0,-1.933553219E-1,-3.920502365E-1,3.476504087E-1
3.158881459E0,-1.954858452E-1,-3.473091722E-1,2.666903734E-1
3.160885938E0,-1.912247986E-1,-3.036333621E-1,1.889261454E-1
3.162891042E0,-1.869637370E-1,-2.610228360E-1,1.143577024E-1
3.164896719E0,-1.816374213E-1,-2.098902166E-1,4.085452482E-2
3.166902917E0,-1.827026904E-1,-1.694101989E-1,-2.625708096E-2
3.168909532E0,-1.709847897E-1,-1.321259588E-1,-9.336868674E-2
3.170916459E0,-1.645932049E-1,-9.484174103E-2,-1.551539749E-1
3.172923594E0,-1.603321433E-1,-5.542699248E-2,-2.030908316E-1
3.174930782E0,-1.582016200E-1,-8.555396460E-3,-2.595497966E-1
3.176937657E0,-1.582016200E-1,3.405514359E-2,-2.989645600E-1
3.178942032E0,-1.613974124E-1,7.666568458E-2,-3.298572004E-1
3.180946407E0,-1.677889973E-1,1.128846556E-1,-3.458361328E-1
3.182950782E0,-1.635279357E-1,1.459078044E-1,-3.660761416E-1
3.184955157E0,-1.656584740E-1,1.778657138E-1,-3.852508962E-1
3.186959532E0,-1.667237282E-1,2.119541466E-1,-3.959035277E-1
3.188963907E0,-1.699195206E-1,2.428468019E-1,-4.076214135E-1
3.190968282E0,-1.688542664E-1,2.705436647E-1,-4.150782824E-1
3.192972657E0,-1.645932049E-1,2.865226269E-1,-4.246656299E-1
3.194977032E0,-1.645932049E-1,3.110236824E-1,-4.236003757E-1
3.196981407E0,-1.656584740E-1,3.344594836E-1,-4.086866975E-1
3.198985782E0,-1.709847897E-1,3.525689542E-1,-3.852508962E-1
3.200990157E0,-1.773763597E-1,3.728089631E-1,-3.660761416E-1
3.202994532E0,-1.827026904E-1,3.877226412E-1,-3.330529928E-1
3.204998907E0,-1.922900528E-1,4.047668576E-1,-3.000298142E-1
3.207003282E0,-1.997469068E-1,4.260721505E-1,-2.691371739E-1
3.209007657E0,-2.125300616E-1,4.409858286E-1,-2.318529487E-1
3.211012032E0,-2.242479622E-1,4.580300450E-1,-1.913729310E-1
3.213016407E0,-2.306395471E-1,4.750742614E-1,-1.562192291E-1
3.215020782E0,-2.380963862E-1,4.899879396E-1,-1.242613271E-1
3.217025157E0,-2.434227020E-1,5.070320964E-1,-8.591184020E-2
3.219029532E0,-2.519448102E-1,5.198152661E-1,-5.501919612E-2
3.221033907E0,-2.540753484E-1,5.389900208E-1,-2.625708096E-2
3.223038282E0,-2.625974119E-1,5.581647754E-1,5.700823851E-3
3.225042657E0,-2.625974119E-1,5.837310553E-1,2.167977765E-2
3.227047032E0,-2.689889967E-1,6.050363779E-1,4.831136763E-2
3.229051407E0,-2.721847892E-1,6.274068952E-1,6.855136901E-2
3.231055782E0,-2.764458358E-1,6.529732347E-1,8.985663950E-2
3.233060157E0,-2.785763741E-1,6.764090061E-1,9.944401681E-2
3.235064532E0,-2.828374207E-1,7.051711082E-1,1.132924408E-1
3.237068907E0,-2.902942598E-1,7.328679562E-1,1.250103414E-1
3.239073282E0,-3.009469211E-1,7.552385330E-1,1.367282420E-1
3.241077657E0,-3.052079678E-1,7.786743045E-1,1.399240196E-1
3.243082032E0,-3.169258535E-1,8.010448217E-1,1.527071893E-1
3.245086407E0,-3.211869001E-1,8.223500848E-1,1.537724584E-1
3.247090782E0,-3.350353539E-1,8.351332545E-1,1.548377126E-1
3.249095157E0,-3.350353539E-1,8.617648482E-1,1.495113969E-1
3.251099532E0,-3.456879854E-1,8.809396029E-1,1.559029818E-1
3.253103907E0,-3.520795405E-1,9.001143575E-1,1.569682360E-1
3.255108282E0,-3.637974560E-1,9.182238579E-1,1.590987742E-1
3.257112657E0,-3.680585027E-1,9.352680445E-1,1.559029818E-1
3.259117032E0,-3.723195493E-1,9.501817226E-1,1.548377126E-1
3.261121407E0,-3.680585027E-1,9.597691298E-1,1.505766660E-1
3.263125782E0,-3.723195493E-1,9.768133163E-1,1.537724584E-1
3.265130157E0,-3.627322018E-1,9.895965457E-1,1.431198120E-1
3.267134532E0,-3.595364094E-1,9.991839528E-1,1.388587654E-1
3.269138907E0,-3.488837779E-1,1.013032436E0,1.314019263E-1
3.271143282E0,-3.339700699E-1,1.029011369E0,1.314019263E-1
3.273147657E0,-3.169258535E-1,1.042859793E0,1.218145564E-1
3.275152032E0,-3.030774295E-1,1.051381946E0,1.122271717E-1
3.277156407E0,-2.839026749E-1,1.065230370E0,1.069008559E-1
3.279160782E0,-2.679237425E-1,1.073752403E0,1.090313867E-1
3.281165157E0,-2.540753484E-1,1.089731336E0,1.015745401E-1
3.283169532E0,-2.423574477E-1,1.108906150E0,8.879137784E-2
3.285173907E0,-2.349005938E-1,1.117428184E0,8.026926965E-2
3.287178282E0,-2.263784856E-1,1.128080845E0,6.855136901E-2
3.289182657E0,-2.231826931E-1,1.131276608E0,5.789874122E-2
3.291187032E0,-2.178563774E-1,1.139798760E0,4.937663302E-2
3.293191407E0,-2.125300616E-1,1.140864015E0,4.511557892E-2
3.295195782E0,-2.135953307E-1,1.144059777E0,3.872399405E-2
3.297200157E0,-2.072037458E-1,1.150451422E0,3.978925943E-2
3.299204532E0,-2.008121610E-1,1.150451422E0,4.085452482E-2
3.301208907E0,-1.954858452E-1,1.152581930E0,3.659347072E-2
3.303213282E0,-1.848332137E-1,1.156842947E0,3.020188585E-2
3.305217657E0,-1.741805822E-1,1.164299846E0,2.487556823E-2
3.307222032E0,-1.613974124E-1,1.176017761E0,9.961877950E-3
3.309226407E0,-1.550058275E-1,1.174952507E0,-6.907565985E-4
3.311230782E0,-1.390268803E-1,1.179213524E0,-2.412655391E-2
3.313235157E0,-1.315700412E-1,1.176017761E0,-4.223603383E-2
3.315239532E0,-1.177216098E-1,1.166430354E0,-6.247603893E-2
3.317243907E0,-1.091995016E-1,1.177083015E0,-8.591184020E-2
3.319248282E0,-9.854686260E-2,1.178148270E0,-1.125434265E-1
3.321252657E0,-9.109002352E-2,1.173887253E0,-1.434360743E-1
3.323257032E0,-8.682896942E-2,1.161104083E0,-1.775245070E-1
3.325261407E0,-7.511106879E-2,1.147255659E0,-2.105476707E-1
3.327265782E0,-7.511106879E-2,1.129146099E0,-2.414403111E-1
3.329270157E0,-7.085001469E-2,1.106775641E0,-2.776592672E-1
3.331274532E0,-6.658896059E-2,1.073752403E0,-3.138782382E-1
3.333278907E0,-6.445842981E-2,1.042859793E0,-3.490319252E-1
3.335283282E0,-6.339316815E-2,1.007706046E0,-3.873814046E-1
3.337287657E0,-6.978475302E-2,9.661607146E-1,-4.257309139E-1
3.339292032E0,-7.085001469E-2,9.278112054E-1,-4.619498551E-1
3.341296407E0,-7.617633045E-2,8.798743486E-1,-5.002993941E-1
3.343300782E0,-7.937212288E-2,8.393943310E-1,-5.439751744E-1
3.345305157E0,-9.109002352E-2,7.999795675E-1,-5.897814631E-1
3.347309532E0,-9.535107762E-2,7.563037872E-1,-6.345225573E-1
3.349313907E0,-1.038731858E-1,7.126279473E-1,-6.803289056E-1
3.351318282E0,-1.209174022E-1,6.540384889E-1,-7.176131010E-1
3.353322657E0,-1.283742487E-1,6.039710641E-1,-7.644847035E-1
3.355327032E0,-1.390268803E-1,5.485773683E-1,-8.092257977E-1
3.357331407E0,-1.528753042E-1,4.931837022E-1,-8.497058153E-1
3.359335782E0,-1.677889973E-1,4.324637055E-1,-8.912510872E-1
3.361340157E0,-1.869637370E-1,3.653521240E-1,-9.285352826E-1
3.363344532E0,-2.018774301E-1,2.950447202E-1,-9.679500461E-1
3.365348907E0,-2.199869156E-1,2.194109857E-1,-9.999079704E-1
3.367353282E0,-2.391616553E-1,1.469730735E-1,-1.031865835E0
3.369357657E0,-2.572711110E-1,7.560042292E-2,-1.063823700E0
3.371362032E0,-2.796416283E-1,1.031975262E-3,-1.094716311E0
3.373366407E0,-2.934900522E-1,-7.992804796E-2,-1.119217396E0
3.375370782E0,-3.211869001E-1,-1.619533598E-1,-1.137326837E0
3.377375157E0,-3.392964005E-1,-2.333260179E-1,-1.166088939E0
3.379379532E0,-3.606016636E-1,-3.132207394E-1,-1.184198499E0
3.381383907E0,-3.840374649E-1,-3.899197280E-1,-1.204438448E0
3.383388282E0,-4.053427279E-1,-4.730102718E-1,-1.222548008E0
3.385392657E0,-4.277132750E-1,-5.518398285E-1,-1.238526940E0
3.387397032E0,-4.490185380E-1,-6.338651180E-1,-1.253440619E0
3.389401407E0,-4.713890851E-1,-7.094988227E-1,-1.264093280E0
3.391405782E0,-4.937596023E-1,-7.851325274E-1,-1.275811195E0
3.393410157E0,-5.118691325E-1,-8.586357236E-1,-1.286463737E0
3.395414532E0,-5.363701582E-1,-9.278778434E-1,-1.289659619E0
3.397418907E0,-5.566101670E-1,-9.992505312E-1,-1.297116399E0
3.399423282E0,-5.779154301E-1,-1.070623040E0,-1.298181653E0
3.401427657E0,-5.906985998E-1,-1.132408381E0,-1.308834314E0
3.403432032E0,-6.088081002E-1,-1.199519992E0,-1.313095331E0
3.405436407E0,-6.247870326E-1,-1.259174705E0,-1.315225840E0
3.407440782E0,-6.418312788E-1,-1.324155807E0,-1.315225840E0
3.409445157E0,-6.546144485E-1,-1.377418995E0,-1.322682738E0
3.411449532E0,-6.673976183E-1,-1.432812691E0,-1.330139637E0
3.413453907E0,-6.812460423E-1,-1.485010624E0,-1.333335400E0
3.415458282E0,-6.908333898E-1,-1.531882167E0,-1.340792179E0
3.417462657E0,-7.057470679E-1,-1.581949592E0,-1.338661671E0
3.419467032E0,-7.142691612E-1,-1.623494864E0,-1.349314332E0
3.421471407E0,-7.227913141E-1,-1.666105390E0,-1.359966993E0
3.423475782E0,-7.313134074E-1,-1.709781170E0,-1.365293264E0
3.425480157E0,-7.419660091E-1,-1.744934916E0,-1.373815417E0
3.427484532E0,-7.536839247E-1,-1.783284307E0,-1.384467959E0
3.429488907E0,-7.632713318E-1,-1.814177036E0,-1.399381757E0
3.431493282E0,-7.707281709E-1,-1.844004393E0,-1.413230181E0
3.433497657E0,-7.803155184E-1,-1.881288648E0,-1.428143859E0
3.435502032E0,-7.888376117E-1,-1.907920241E0,-1.446253300E0
3.437506407E0,-7.994902730E-1,-1.929225445E0,-1.467558622E0
3.439510782E0,-8.048166037E-1,-1.957987547E0,-1.483537555E0
3.441515157E0,-8.122734427E-1,-1.973966479E0,-1.510169148E0
3.443519532E0,-8.197302818E-1,-1.993141294E0,-1.533604860E0
3.445523907E0,-8.229260445E-1,-2.004859209E0,-1.557040691E0
3.447528282E0,-8.346439600E-1,-2.018707752E0,-1.582607031E0
3.449532657E0,-8.421007991E-1,-2.031490803E0,-1.610303879E0
3.451537032E0,-8.463618755E-1,-2.037882328E0,-1.636935472E0
3.453541407E0,-8.484923840E-1,-2.037882328E0,-1.668893337E0
3.455545782E0,-8.538187146E-1,-2.044273853E0,-1.700851321E0
3.457550157E0,-8.570144773E-1,-2.046404362E0,-1.724287033E0
3.459554532E0,-8.602102995E-1,-2.051730871E0,-1.751983881E0
3.461558907E0,-8.666018844E-1,-2.050665379E0,-1.783941865E0
3.463563282E0,-8.666018844E-1,-2.046404362E0,-1.813769221E0
3.465567657E0,-8.676671386E-1,-2.044273853E0,-1.839335561E0
3.467572032E0,-8.708629012E-1,-2.037882328E0,-1.865967155E0
3.469576407E0,-8.697976470E-1,-2.029360294E0,-1.892598748E0
3.471580782E0,-8.687323928E-1,-2.016577005E0,-1.922426105E0
3.473585157E0,-8.729934692E-1,-2.013381243E0,-1.942666054E0
3.475589532E0,-8.697976470E-1,-2.000598192E0,-1.966101885E0
3.477593907E0,-8.729934692E-1,-1.989945531E0,-1.991668224E0
3.479598282E0,-8.740587234E-1,-1.982488632E0,-2.009777784E0
3.481602657E0,-8.729934692E-1,-1.969705462E0,-2.033213615E0
3.483607032E0,-8.740587234E-1,-1.961183310E0,-2.051322937E0
3.485611407E0,-8.751239777E-1,-1.948400140E0,-2.070497751E0
3.487615782E0,-8.719282150E-1,-1.933486462E0,-2.087542057E0
3.489620157E0,-8.719282150E-1,-1.926029682E0,-2.102455616E0
3.491624532E0,-8.740587234E-1,-1.913246512E0,-2.118434668E0
3.493628907E0,-8.761892319E-1,-1.902593851E0,-2.138674498E0
3.495633282E0,-8.751239777E-1,-1.894071817E0,-2.154653549E0
3.497637657E0,-8.772544861E-1,-1.885549664E0,-2.169567347E0
3.499642032E0,-8.783197403E-1,-1.877027512E0,-2.181285143E0
3.501646407E0,-8.761892319E-1,-1.870635986E0,-2.195133448E0
3.503650782E0,-8.761892319E-1,-1.859983325E0,-2.211112499E0
3.505655157E0,-8.740587234E-1,-1.853591800E0,-2.217504025E0
3.507659532E0,-8.772544861E-1,-1.851461172E0,-2.231352568E0
3.509663907E0,-8.772544861E-1,-1.841873884E0,-2.247331381E0
3.511668282E0,-8.793850541E-1,-1.833351731E0,-2.262245178E0
3.513672657E0,-8.793850541E-1,-1.832286477E0,-2.271832466E0
3.515677032E0,-8.825808167E-1,-1.829090714E0,-2.279289484E0
3.517681407E0,-8.889724016E-1,-1.832286477E0,-2.291007280E0
3.519685782E0,-8.900376558E-1,-1.824829578E0,-2.303790331E0
3.521690157E0,-8.942987323E-1,-1.823764324E0,-2.312312603E0
3.523694532E0,-8.974944949E-1,-1.828025460E0,-2.321899891E0
3.525698907E0,-9.006903172E-1,-1.825894833E0,-2.330421925E0
3.527703282E0,-9.113429189E-1,-1.823764324E0,-2.342139959E0
3.529707657E0,-9.134734869E-1,-1.824829578E0,-2.352792501E0
3.531712032E0,-9.198650718E-1,-1.823764324E0,-2.363445282E0
3.533716407E0,-9.262565970E-1,-1.821633816E0,-2.374097824E0
3.535720782E0,-9.326481819E-1,-1.821633816E0,-2.384750366E0
3.537725157E0,-9.422355890E-1,-1.821633816E0,-2.399664164E0
3.539729532E0,-9.443660975E-1,-1.824829578E0,-2.410316706E0
3.541733907E0,-9.582145214E-1,-1.822699070E0,-2.427361012E0
3.543738282E0,-9.656713605E-1,-1.829090714E0,-2.439078808E0
3.545742657E0,-9.741934538E-1,-1.829090714E0,-2.455057859E0
3.547747032E0,-9.848461151E-1,-1.836547494E0,-2.464645147E0
3.549751407E0,-9.923029542E-1,-1.835482240E0,-2.484885216E0
3.551755782E0,-1.002955556E0,-1.839743376E0,-2.499799013E0
3.553760157E0,-1.011477709E0,-1.855722308E0,-2.511516809E0
3.555764532E0,-1.022130370E0,-1.862113833E0,-2.527495861E0
3.557768907E0,-1.028521895E0,-1.871701241E0,-2.544539928E0
3.559773282E0,-1.038109303E0,-1.875962257E0,-2.556257963E0
3.561777657E0,-1.045566082E0,-1.888745427E0,-2.570106268E0
3.563782032E0,-1.054088235E0,-1.899398088E0,-2.582889557E0
3.565786407E0,-1.061545134E0,-1.908985496E0,-2.592476845E0
3.567790782E0,-1.066871405E0,-1.915377021E0,-2.606325388E0
3.569795157E0,-1.074328303E0,-1.928160191E0,-2.614847422E0
3.571799532E0,-1.078589320E0,-1.940943360E0,-2.628695726E0
3.573803907E0,-1.080719829E0,-1.949465513E0,-2.637217999E0
3.575808282E0,-1.087111473E0,-1.963313937E0,-2.646805286E0
3.577812657E0,-1.095633507E0,-1.972901225E0,-2.651066303E0
3.579817032E0,-1.097764015E0,-1.977162361E0,-2.660653830E0
3.581821407E0,-1.097764015E0,-1.985684395E0,-2.671306372E0
3.583825782E0,-1.104155660E0,-1.994206548E0,-2.675567389E0
3.585830157E0,-1.100959897E0,-1.998467565E0,-2.684089422E0
3.587834532E0,-1.106286168E0,-2.009120226E0,-2.688350677E0
3.589838907E0,-1.106286168E0,-2.015511751E0,-2.692611694E0
3.591843282E0,-1.107351422E0,-2.017642498E0,-2.694742203E0
3.593847657E0,-1.105220914E0,-2.027229786E0,-2.696872711E0
3.595852032E0,-1.104155660E0,-2.029360294E0,-2.700068474E0
3.597856407E0,-1.104155660E0,-2.042143345E0,-2.699003220E0
3.599860782E0,-1.097764015E0,-2.048534870E0,-2.695807457E0
3.601865157E0,-1.094568253E0,-2.050665379E0,-2.695807457E0
3.603869532E0,-1.092437744E0,-2.051730871E0,-2.690481186E0
3.605873907E0,-1.091372490E0,-2.052796125E0,-2.690481186E0
3.607878282E0,-1.095633507E0,-2.057057142E0,-2.684089422E0
3.609882657E0,-1.091372490E0,-2.060252905E0,-2.681958914E0
3.611887032E0,-1.090307236E0,-2.063448668E0,-2.677697897E0
3.613891407E0,-1.088176727E0,-2.065579176E0,-2.671306372E0
3.615895782E0,-1.086046100E0,-2.062383413E0,-2.673436880E0
3.617900157E0,-1.084980845E0,-2.068774939E0,-2.665980101E0
3.619904532E0,-1.081785083E0,-2.076231718E0,-2.660653830E0
3.621908907E0,-1.077524066E0,-2.075166464E0,-2.657457829E0
3.623913282E0,-1.077524066E0,-2.079427719E0,-2.650001049E0
3.625917657E0,-1.076458812E0,-2.081558228E0,-2.642544270E0
3.627922032E0,-1.070067167E0,-2.082623482E0,-2.643609524E0
3.629926407E0,-1.070067167E0,-2.090080261E0,-2.640413761E0
3.631930782E0,-1.063675642E0,-2.091145515E0,-2.634022236E0
3.633935157E0,-1.059414625E0,-2.095406532E0,-2.625499964E0
3.635939532E0,-1.058349252E0,-2.098602295E0,-2.619108438E0
3.637943907E0,-1.048761964E0,-2.098602295E0,-2.613782167E0
3.639948282E0,-1.044500828E0,-2.100732803E0,-2.608455896E0
3.641952657E0,-1.040239811E0,-2.092210770E0,-2.603129387E0
3.643957032E0,-1.038109303E0,-2.091145515E0,-2.591411591E0
3.645961407E0,-1.037044048E0,-2.083688736E0,-2.586085320E0
3.647965782E0,-1.031717658E0,-2.079427719E0,-2.576497793E0
3.649970157E0,-1.029587150E0,-2.080492973E0,-2.573302031E0
3.651974532E0,-1.026391387E0,-2.077296972E0,-2.566910505E0
3.653978907E0,-1.019999862E0,-2.073035955E0,-2.573302031E0
3.655983282E0,-1.019999862E0,-2.063448668E0,-2.566910505E0
3.657987657E0,-1.017869234E0,-2.058122396E0,-2.567975760E0
3.659992032E0,-1.016803980E0,-2.055991888E0,-2.561584234E0
3.661996407E0,-1.015738726E0,-2.054926634E0,-2.559453726E0
3.664000782E0,-1.016803980E0,-2.053861380E0,-2.563714743E0
3.666005157E0,-1.013608217E0,-2.053861380E0,-2.564779997E0
3.668009532E0,-1.009347200E0,-2.053861380E0,-2.565845251E0
3.670013907E0,-1.011477709E0,-2.058122396E0,-2.571171522E0
3.672018282E0,-1.010412455E0,-2.063448668E0,-2.575432539E0
3.674022657E0,-1.005086184E0,-2.066644430E0,-2.577563047E0
3.676027032E0,-9.965640306E-1,-2.062383413E0,-2.586085320E0
3.678031407E0,-9.954987764E-1,-2.073035955E0,-2.581824303E0
3.680035782E0,-9.848461151E-1,-2.077296972E0,-2.591411591E0
3.682040157E0,-9.763240218E-1,-2.079427719E0,-2.589281082E0
3.684044532E0,-9.678019285E-1,-2.078362465E0,-2.591411591E0
3.686048907E0,-9.539535046E-1,-2.076231718E0,-2.591411591E0
3.688053282E0,-9.411703348E-1,-2.068774939E0,-2.596737862E0
3.690057657E0,-9.326481819E-1,-2.074101210E0,-2.596737862E0
3.692062032E0,-9.166692495E-1,-2.066644430E0,-2.592476845E0
3.694066407E0,-8.996250629E-1,-2.062383413E0,-2.593542099E0
3.696070782E0,-8.825808167E-1,-2.051730871E0,-2.592476845E0
3.698075157E0,-8.666018844E-1,-2.038947582E0,-2.590346336E0
3.700079532E0,-8.506228924E-1,-2.029360294E0,-2.586085320E0
3.702083907E0,-8.293176293E-1,-2.020838022E0,-2.578628540E0
3.704088282E0,-8.144039512E-1,-2.003793955E0,-2.576497793E0
3.706092657E0,-7.952291965E-1,-1.997402310E0,-2.569041014E0
3.708097032E0,-7.771197557E-1,-1.984619141E0,-2.564779997E0
3.710101407E0,-7.568797469E-1,-1.970770717E0,-2.559453726E0
3.712105782E0,-7.377049923E-1,-1.962248564E0,-2.554127455E0
3.714110157E0,-7.195954919E-1,-1.954791784E0,-2.546670437E0
3.716114532E0,-7.057470679E-1,-1.943073869E0,-2.538148403E0
3.718118907E0,-6.855070591E-1,-1.934551716E0,-2.530691624E0
3.720123282E0,-6.695281267E-1,-1.920703292E0,-2.526430607E0
3.722127657E0,-6.535491347E-1,-1.913246512E0,-2.517908335E0
3.724132032E0,-6.386354566E-1,-1.901528597E0,-2.510451555E0
3.726136407E0,-6.183954477E-1,-1.887680173E0,-2.501929522E0
3.728140782E0,-6.013512611E-1,-1.883419156E0,-2.494472504E0
3.730145157E0,-5.800459981E-1,-1.873831749E0,-2.484885216E0
3.732149532E0,-5.608712435E-1,-1.854657054E0,-2.472102165E0
3.734153907E0,-5.416964889E-1,-1.850395918E0,-2.464645147E0
3.736158282E0,-5.246523023E-1,-1.834416986E0,-2.452927351E0
3.738162657E0,-5.065428019E-1,-1.818438053E0,-2.439078808E0
3.740167032E0,-4.905638099E-1,-1.806720138E0,-2.426295757E0
3.742171407E0,-4.692585468E-1,-1.791806459E0,-2.410316706E0
3.744175782E0,-4.575406313E-1,-1.780088544E0,-2.393272638E0
3.746180157E0,-4.319743216E-1,-1.766240120E0,-2.382619858E0
3.748184532E0,-4.223869443E-1,-1.751326442E0,-2.363445282E0
3.750188907E0,-4.042774737E-1,-1.735347509E0,-2.342139959E0
3.752193282E0,-3.904290497E-1,-1.720433831E0,-2.328291416E0
3.754197657E0,-3.819069266E-1,-1.700193763E0,-2.311247349E0
3.756202032E0,-3.712542951E-1,-1.683149576E0,-2.294203043E0
3.758206407E0,-3.563406169E-1,-1.660778999E0,-2.276093483E0
3.760210782E0,-3.456879854E-1,-1.644800067E0,-2.255853653E0
3.762215157E0,-3.403616548E-1,-1.625625372E0,-2.238809347E0
3.764219532E0,-3.307742774E-1,-1.609646440E0,-2.222830296E0
3.766223907E0,-3.243826926E-1,-1.593667388E0,-2.200459957E0
3.768228282E0,-3.190563917E-1,-1.576623201E0,-2.183415651E0
3.770232657E0,-3.041426837E-1,-1.558513761E0,-2.166371346E0
3.772237032E0,-3.009469211E-1,-1.545730591E0,-2.145066261E0
3.774241407E0,-2.945553362E-1,-1.527621150E0,-2.129087210E0
3.776245782E0,-2.881637514E-1,-1.514837980E0,-2.105651379E0
3.778250157E0,-2.892290056E-1,-1.496728420E0,-2.083280802E0
3.780254532E0,-2.860332131E-1,-1.486075878E0,-2.057714462E0
3.782258907E0,-2.839026749E-1,-1.465835810E0,-2.033213615E0
3.784263282E0,-2.839026749E-1,-1.460509539E0,-2.010843039E0
3.786267657E0,-2.828374207E-1,-1.444530606E0,-1.987407207E0
3.788272032E0,-2.828374207E-1,-1.428551555E0,-1.962906122E0
3.790276407E0,-2.860332131E-1,-1.411507368E0,-1.938405037E0
3.792280782E0,-2.913595438E-1,-1.387006283E0,-1.908577681E0
3.794285157E0,-2.892290056E-1,-1.364635825E0,-1.881946087E0
3.796289532E0,-2.913595438E-1,-1.344395757E0,-1.856379747E0
3.798293907E0,-2.956205904E-1,-1.325221062E0,-1.826552391E0
3.800298282E0,-2.892290056E-1,-1.304980993E0,-1.806312323E0
3.802302657E0,-2.902942598E-1,-1.281545281E0,-1.780746102E0
3.804307032E0,-2.828374207E-1,-1.253848433E0,-1.753049254E0
3.806311407E0,-2.785763741E-1,-1.231477857E0,-1.730678678E0
3.808315782E0,-2.721847892E-1,-1.205911517E0,-1.701916575E0
3.810320157E0,-2.647279501E-1,-1.185671568E0,-1.673154473E0
3.812324532E0,-2.594016194E-1,-1.157974720E0,-1.645457625E0
3.814328907E0,-2.476837635E-1,-1.135604143E0,-1.616695523E0
3.816333282E0,-2.434227020E-1,-1.119625211E0,-1.581541777E0
3.818337657E0,-2.295742780E-1,-1.096189380E0,-1.553844929E0
3.820342032E0,-2.178563774E-1,-1.074884057E0,-1.521887064E0
3.822346407E0,-2.072037458E-1,-1.050383091E0,-1.484602809E0
3.824350782E0,-1.986816376E-1,-1.029077768E0,-1.450514317E0
3.826355157E0,-1.880290061E-1,-1.013098836E0,-1.413230181E0
3.828359532E0,-1.741805822E-1,-9.896631241E-1,-1.380206943E0
3.830363907E0,-1.603321433E-1,-9.790105224E-1,-1.350379586E0
3.832368282E0,-1.486142576E-1,-9.619662762E-1,-1.316291094E0
3.834372657E0,-1.368963569E-1,-9.449220896E-1,-1.281137466E0
3.836377032E0,-1.262437105E-1,-9.268125892E-1,-1.247048974E0
3.838381407E0,-1.123952940E-1,-9.097684026E-1,-1.216156363E0
3.840385782E0,-9.641633928E-2,-8.873978257E-1,-1.186329007E0
3.842390157E0,-8.256791532E-2,-8.746146560E-1,-1.156501651E0
3.844394532E0,-6.978475302E-2,-8.565052152E-1,-1.123478413E0
3.846398907E0,-5.700159073E-2,-8.277431130E-1,-1.092585802E0
3.848403282E0,-4.847948253E-2,-8.085683584E-1,-1.056366801E0
3.850407657E0,-3.356578946E-2,-7.851325274E-1,-1.028669953E0
3.852412032E0,-1.758683473E-2,-7.574356794E-1,-9.945816398E-1
3.854416407E0,-9.064726532E-3,-7.382609248E-1,-9.690153003E-1
3.856420782E0,2.653172240E-3,-7.169556618E-1,-9.391879439E-1
3.858425157E0,1.650159806E-2,-6.935198903E-1,-9.157521129E-1
3.860429532E0,3.035002388E-2,-6.690188050E-1,-8.827289343E-1
3.862433907E0,3.993739188E-2,-6.381261945E-1,-8.592931628E-1
3.864438282E0,5.165529251E-2,-6.136251092E-1,-8.252047300E-1
3.866442657E0,6.550371647E-2,-5.795366764E-1,-7.996383905E-1
3.868447032E0,7.828687876E-2,-5.529050827E-1,-7.719415426E-1
3.870451407E0,8.467845619E-2,-5.262734890E-1,-7.431794405E-1
3.872455782E0,9.213530272E-2,-4.985766113E-1,-7.144173384E-1
3.874460157E0,1.006574109E-1,-4.687492251E-1,-6.835246682E-1
3.876464532E0,1.155711040E-1,-4.389218390E-1,-6.590236425E-1
3.878468907E0,1.166363657E-1,-4.069639444E-1,-6.270657182E-1
3.880473282E0,1.272889972E-1,-3.750060201E-1,-6.014993787E-1
3.882477657E0,1.315500587E-1,-3.451786637E-1,-5.738025308E-1
3.884482032E0,1.390068978E-1,-3.057639003E-1,-5.461056828E-1
3.886486407E0,1.432679594E-1,-2.780670524E-1,-5.141477585E-1
3.888490782E0,1.485942751E-1,-2.429133803E-1,-4.853856564E-1
3.890495157E0,1.539205909E-1,-2.109554708E-1,-4.544930160E-1
3.892499532E0,1.667037457E-1,-1.789975762E-1,-4.278614223E-1
3.894503907E0,1.741605997E-1,-1.438438743E-1,-3.990993202E-1
3.896508282E0,1.773563921E-1,-1.097554266E-1,-3.714024723E-1
3.898512657E0,1.858785003E-1,-7.886278629E-2,-3.437056243E-1
3.900517032E0,1.954658628E-1,-4.583961889E-2,-3.181392848E-1
3.902521407E0,2.061184943E-1,-1.388171408E-2,-2.947034836E-1
3.904525782E0,2.189016640E-1,1.914145425E-2,-2.659413815E-1
3.906530157E0,2.263585031E-1,5.216462910E-2,-2.382445186E-1
3.908534532E0,2.380764037E-1,8.944885433E-2,-2.137434632E-1
3.910538907E0,2.508595884E-1,1.160804257E-1,-1.860466152E-1
3.912543282E0,2.593817115E-1,1.501688510E-1,-1.594150215E-1
3.914547657E0,2.700343430E-1,1.789309680E-1,-1.349139661E-1
3.916552032E0,2.828175128E-1,2.119541466E-1,-1.146739572E-1
3.918556407E0,2.956006825E-1,2.385857403E-1,-8.697710186E-2
3.920560782E0,3.083838224E-1,2.726742029E-1,-6.247603893E-2
3.922565157E0,3.147754073E-1,3.025015593E-1,-3.371392936E-2
3.924569532E0,3.296891153E-1,3.280678988E-1,-1.453918312E-2
3.926573907E0,3.414070010E-1,3.578952849E-1,1.102714147E-2
3.928578282E0,3.520596325E-1,3.813310862E-1,3.978925943E-2
3.930582657E0,3.605817556E-1,4.132889807E-1,6.429031491E-2
3.932587032E0,3.712343872E-1,4.409858286E-1,9.305243194E-2
